subject	BlockReport	condition	trial_num	yn	setsize	response	error	message	feedback	rt1	practice	RVvGV	1	1	3	40	0	HIT	HIT	14211	practice	RVvGV	2	0	3	1	0	TNEG	TNEG	6771	practice	RVvGV	4	0	18	1	0	TNEG	TNEG	5381	practice	RVvGV	5	0	12	1	0	TNEG	TNEG	4231	practice	RVvGV	6	0	18	1	0	TNEG	TNEG	3651	practice	RVvGV	7	0	6	1	0	TNEG	TNEG	2941	practice	RVvGV	8	0	18	1	0	TNEG	TNEG	2551	practice	RVvGV	9	1	3	40	0	HIT	HIT	3121	practice	RVvGV	10	1	18	1	1	MISS	MISS	3651	experiment	RVvGV	1	1	18	40	0	HIT	HIT	3881	experiment	RVvGV	2	0	3	1	0	TNEG	TNEG	7131	experiment	RVvGV	3	1	6	40	0	HIT	HIT	4051	experiment	RVvGV	4	1	6	40	0	HIT	HIT	3261	experiment	RVvGV	5	0	6	1	0	TNEG	TNEG	3511	experiment	RVvGV	6	0	12	1	0	TNEG	TNEG	3241	experiment	RVvGV	7	0	12	1	0	TNEG	TNEG	4271	experiment	RVvGV	8	0	18	1	0	TNEG	TNEG	3751	experiment	RVvGV	9	1	12	40	0	HIT	HIT	3461	experiment	RVvGV	10	0	12	1	0	TNEG	TNEG	3221	experiment	RVvGV	11	0	6	1	0	TNEG	TNEG	3351	experiment	RVvGV	12	1	12	40	0	HIT	HIT	3781	experiment	RVvGV	13	0	6	1	0	TNEG	TNEG	3421	experiment	RVvGV	14	0	12	1	0	TNEG	TNEG	3781	experiment	RVvGV	15	1	6	40	0	HIT	HIT	3821	experiment	RVvGV	16	0	3	1	0	TNEG	TNEG	3291	experiment	RVvGV	17	1	6	40	0	HIT	HIT	3021	experiment	RVvGV	18	0	18	1	0	TNEG	TNEG	3661	experiment	RVvGV	19	1	6	40	0	HIT	HIT	3021	experiment	RVvGV	20	1	3	40	0	HIT	HIT	4081	experiment	RVvGV	21	0	18	1	0	TNEG	TNEG	3251	experiment	RVvGV	22	0	3	1	0	TNEG	TNEG	3771	experiment	RVvGV	23	0	18	1	0	TNEG	TNEG	3101	experiment	RVvGV	24	1	18	40	0	HIT	HIT	3561	experiment	RVvGV	25	1	12	40	0	HIT	HIT	3691	experiment	RVvGV	26	0	18	1	0	TNEG	TNEG	3731	experiment	RVvGV	27	1	3	40	0	HIT	HIT	3611	experiment	RVvGV	28	0	3	1	0	TNEG	TNEG	3771	experiment	RVvGV	29	1	6	40	0	HIT	HIT	4691	experiment	RVvGV	30	0	18	1	0	TNEG	TNEG	6521	experiment	RVvGV	31	1	18	40	0	HIT	HIT	3321	experiment	RVvGV	32	0	3	1	0	TNEG	TNEG	3681	experiment	RVvGV	33	0	12	1	0	TNEG	TNEG	3371	experiment	RVvGV	34	1	18	40	0	HIT	HIT	9401	experiment	RVvGV	35	0	6	1	0	TNEG	TNEG	5001	experiment	RVvGV	36	1	3	40	0	HIT	HIT	3271	experiment	RVvGV	37	1	18	1	1	MISS	MISS	3321	experiment	RVvGV	38	0	6	1	0	TNEG	TNEG	3581	experiment	RVvGV	39	1	6	1	1	MISS	MISS	3821	experiment	RVvGV	40	1	3	40	0	HIT	HIT	5351	experiment	RVvGV	41	0	3	1	0	TNEG	TNEG	3911	experiment	RVvGV	42	1	12	40	0	HIT	HIT	3921	experiment	RVvGV	43	0	12	1	0	TNEG	TNEG	3931	experiment	RVvGV	44	0	12	1	0	TNEG	TNEG	3431	experiment	RVvGV	45	0	6	1	0	TNEG	TNEG	5021	experiment	RVvGV	46	0	18	1	0	TNEG	TNEG	3941	experiment	RVvGV	47	0	6	1	0	TNEG	TNEG	4771	experiment	RVvGV	48	0	3	1	0	TNEG	TNEG	3911	experiment	RVvGV	49	0	18	1	0	TNEG	TNEG	3881	experiment	RVvGV	50	1	3	40	0	HIT	HIT	3271	experiment	RVvGV	51	0	18	1	0	TNEG	TNEG	3371	experiment	RVvGV	52	0	6	1	0	TNEG	TNEG	3321	experiment	RVvGV	53	0	6	1	0	TNEG	TNEG	3401	experiment	RVvGV	54	1	6	40	0	HIT	HIT	3731	experiment	RVvGV	55	0	18	1	0	TNEG	TNEG	3711	experiment	RVvGV	56	1	18	40	0	HIT	HIT	4501	experiment	RVvGV	57	1	3	40	0	HIT	HIT	3111	experiment	RVvGV	58	1	18	40	0	HIT	HIT	3141	experiment	RVvGV	59	1	12	40	0	HIT	HIT	3841	experiment	RVvGV	60	0	12	1	0	TNEG	TNEG	3691	experiment	RVvGV	61	1	12	40	0	HIT	HIT	3201	experiment	RVvGV	62	0	3	1	0	TNEG	TNEG	3591	experiment	RVvGV	63	1	6	40	0	HIT	HIT	3001	experiment	RVvGV	64	0	3	1	0	TNEG	TNEG	3361	experiment	RVvGV	65	1	3	40	0	HIT	HIT	3521	experiment	RVvGV	66	0	18	1	0	TNEG	TNEG	3151	experiment	RVvGV	67	1	6	40	0	HIT	HIT	3251	experiment	RVvGV	68	1	18	40	0	HIT	HIT	3541	experiment	RVvGV	69	1	3	40	0	HIT	HIT	3031	experiment	RVvGV	70	1	12	40	0	HIT	HIT	3361	experiment	RVvGV	71	1	18	40	0	HIT	HIT	3701	experiment	RVvGV	72	1	18	40	0	HIT	HIT	4581	experiment	RVvGV	73	0	12	1	0	TNEG	TNEG	3671	experiment	RVvGV	74	0	12	1	0	TNEG	TNEG	3511	experiment	RVvGV	75	0	3	1	0	TNEG	TNEG	12241	experiment	RVvGV	76	1	6	40	0	HIT	HIT	6051	experiment	RVvGV	77	0	6	1	0	TNEG	TNEG	4531	experiment	RVvGV	78	0	3	1	0	TNEG	TNEG	4071	experiment	RVvGV	79	1	18	40	0	HIT	HIT	4171	experiment	RVvGV	80	0	6	1	0	TNEG	TNEG	3491	experiment	RVvGV	81	0	3	1	0	TNEG	TNEG	6641	experiment	RVvGV	82	1	3	40	0	HIT	HIT	3601	experiment	RVvGV	83	1	12	40	0	HIT	HIT	3991	experiment	RVvGV	84	1	3	40	0	HIT	HIT	4071	experiment	RVvGV	85	0	18	1	0	TNEG	TNEG	3311	experiment	RVvGV	86	0	12	1	0	TNEG	TNEG	3841	experiment	RVvGV	87	1	6	40	0	HIT	HIT	4211	experiment	RVvGV	88	1	12	40	0	HIT	HIT	5121	experiment	RVvGV	89	0	3	1	0	TNEG	TNEG	3431	experiment	RVvGV	90	0	18	1	0	TNEG	TNEG	4341	experiment	RVvGV	91	0	3	1	0	TNEG	TNEG	3601	experiment	RVvGV	92	1	6	40	0	HIT	HIT	3491	experiment	RVvGV	93	0	3	1	0	TNEG	TNEG	5281	experiment	RVvGV	94	1	18	40	0	HIT	HIT	2901	experiment	RVvGV	95	1	18	40	0	HIT	HIT	3461	experiment	RVvGV	96	0	12	1	0	TNEG	TNEG	3761	experiment	RVvGV	97	1	6	40	0	HIT	HIT	3821	experiment	RVvGV	98	1	3	1	1	MISS	MISS	3271	experiment	RVvGV	99	0	18	1	0	TNEG	TNEG	4491	experiment	RVvGV	100	0	3	1	0	TNEG	TNEG	3911	experiment	RVvGV	101	0	3	1	0	TNEG	TNEG	3751	experiment	RVvGV	102	0	6	1	0	TNEG	TNEG	4061	experiment	RVvGV	103	0	12	1	0	TNEG	TNEG	4241	experiment	RVvGV	104	1	3	40	0	HIT	HIT	3341	experiment	RVvGV	105	1	18	40	0	HIT	HIT	3781	experiment	RVvGV	106	0	3	1	0	TNEG	TNEG	3831	experiment	RVvGV	107	1	18	40	0	HIT	HIT	4111	experiment	RVvGV	108	0	18	1	0	TNEG	TNEG	3711	experiment	RVvGV	109	1	6	40	0	HIT	HIT	4051	experiment	RVvGV	110	0	6	1	0	TNEG	TNEG	3321	experiment	RVvGV	111	0	18	1	0	TNEG	TNEG	3621	experiment	RVvGV	112	0	12	1	0	TNEG	TNEG	3041	experiment	RVvGV	113	1	12	40	0	HIT	HIT	3681	experiment	RVvGV	114	0	6	1	0	TNEG	TNEG	3971	experiment	RVvGV	115	1	18	40	0	HIT	HIT	2821	experiment	RVvGV	116	1	3	40	0	HIT	HIT	3351	experiment	RVvGV	117	0	18	1	0	TNEG	TNEG	3391	experiment	RVvGV	118	1	3	1	1	MISS	MISS	3601	experiment	RVvGV	119	1	18	1	1	MISS	MISS	4111	experiment	RVvGV	120	1	6	40	0	HIT	HIT	6921	experiment	RVvGV	121	0	3	1	0	TNEG	TNEG	4311	experiment	RVvGV	122	1	12	40	0	HIT	HIT	3671	experiment	RVvGV	123	1	6	40	0	HIT	HIT	3261	experiment	RVvGV	124	1	6	40	0	HIT	HIT	2931	experiment	RVvGV	125	1	12	40	0	HIT	HIT	3521	experiment	RVvGV	126	1	12	40	0	HIT	HIT	4391	experiment	RVvGV	127	1	6	40	0	HIT	HIT	3561	experiment	RVvGV	128	0	12	1	0	TNEG	TNEG	5841	experiment	RVvGV	129	0	12	1	0	TNEG	TNEG	4721	experiment	RVvGV	130	1	3	40	0	HIT	HIT	4481	experiment	RVvGV	131	1	12	40	0	HIT	HIT	4311	experiment	RVvGV	132	0	3	1	0	TNEG	TNEG	5591	experiment	RVvGV	133	0	18	1	0	TNEG	TNEG	6431	experiment	RVvGV	134	1	18	40	0	HIT	HIT	4191	experiment	RVvGV	135	0	18	1	0	TNEG	TNEG	5871	experiment	RVvGV	136	0	6	1	0	TNEG	TNEG	4431	experiment	RVvGV	137	1	18	40	0	HIT	HIT	3701	experiment	RVvGV	138	1	3	40	0	HIT	HIT	6631	experiment	RVvGV	139	0	18	1	0	TNEG	TNEG	6911	experiment	RVvGV	140	1	18	40	0	HIT	HIT	6981	experiment	RVvGV	141	0	3	1	0	TNEG	TNEG	3361	experiment	RVvGV	142	1	6	40	0	HIT	HIT	4121	experiment	RVvGV	143	1	3	40	0	HIT	HIT	3831	experiment	RVvGV	144	0	6	1	0	TNEG	TNEG	4211	experiment	RVvGV	145	0	3	1	0	TNEG	TNEG	3761	experiment	RVvGV	146	0	6	1	0	TNEG	TNEG	3571	experiment	RVvGV	147	0	18	1	0	TNEG	TNEG	3701	experiment	RVvGV	148	1	18	40	0	HIT	HIT	3381	experiment	RVvGV	149	1	12	40	0	HIT	HIT	3121	experiment	RVvGV	150	1	18	40	0	HIT	HIT	3871	experiment	RVvGV	151	0	12	1	0	TNEG	TNEG	3041	experiment	RVvGV	152	1	6	40	0	HIT	HIT	3151	experiment	RVvGV	153	1	12	40	0	HIT	HIT	3901	experiment	RVvGV	154	1	18	40	0	HIT	HIT	3301	experiment	RVvGV	155	0	12	1	0	TNEG	TNEG	3681	experiment	RVvGV	156	0	12	1	0	TNEG	TNEG	4961	experiment	RVvGV	157	1	3	40	0	HIT	HIT	3281	experiment	RVvGV	158	1	18	40	0	HIT	HIT	3861	experiment	RVvGV	159	1	18	40	0	HIT	HIT	3781	experiment	RVvGV	160	0	6	1	0	TNEG	TNEG	3731	experiment	RVvGV	161	0	3	1	0	TNEG	TNEG	3771	experiment	RVvGV	162	1	6	40	0	HIT	HIT	3491	experiment	RVvGV	163	1	18	40	0	HIT	HIT	5541	experiment	RVvGV	164	1	3	40	0	HIT	HIT	6131	experiment	RVvGV	165	0	3	1	0	TNEG	TNEG	4071	experiment	RVvGV	166	0	12	1	0	TNEG	TNEG	3441	experiment	RVvGV	167	0	3	1	0	TNEG	TNEG	4151	experiment	RVvGV	168	0	3	1	0	TNEG	TNEG	3591	experiment	RVvGV	169	1	6	40	0	HIT	HIT	3551	experiment	RVvGV	170	0	3	1	0	TNEG	TNEG	4231	experiment	RVvGV	171	0	6	40	1	FA	FA	4451	experiment	RVvGV	172	0	18	1	0	TNEG	TNEG	4671	experiment	RVvGV	173	1	6	40	0	HIT	HIT	4371	experiment	RVvGV	174	0	3	1	0	TNEG	TNEG	5271	experiment	RVvGV	175	0	3	1	0	TNEG	TNEG	4631	experiment	RVvGV	176	0	18	1	0	TNEG	TNEG	4111	experiment	RVvGV	177	0	18	1	0	TNEG	TNEG	3551	experiment	RVvGV	178	1	12	40	0	HIT	HIT	4481	experiment	RVvGV	179	0	18	1	0	TNEG	TNEG	4091	experiment	RVvGV	180	0	3	1	0	TNEG	TNEG	5191	experiment	RVvGV	182	0	6	1	0	TNEG	TNEG	4821	experiment	RVvGV	183	1	6	40	0	HIT	HIT	4381	experiment	RVvGV	184	1	3	40	0	HIT	HIT	3381	experiment	RVvGV	185	1	18	40	0	HIT	HIT	3521	experiment	RVvGV	186	0	12	1	0	TNEG	TNEG	3151	experiment	RVvGV	187	1	12	40	0	HIT	HIT	3461	experiment	RVvGV	188	1	6	40	0	HIT	HIT	3661	experiment	RVvGV	189	1	3	40	0	HIT	HIT	3531	experiment	RVvGV	190	1	18	40	0	HIT	HIT	3751	experiment	RVvGV	191	1	3	40	0	HIT	HIT	3611	experiment	RVvGV	192	0	12	1	0	TNEG	TNEG	3941	experiment	RVvGV	193	0	3	1	0	TNEG	TNEG	4561	experiment	RVvGV	194	0	18	1	0	TNEG	TNEG	4151	experiment	RVvGV	195	0	3	1	0	TNEG	TNEG	3861	experiment	RVvGV	196	0	18	1	0	TNEG	TNEG	3251	experiment	RVvGV	197	1	3	40	0	HIT	HIT	3761	experiment	RVvGV	198	0	18	1	0	TNEG	TNEG	4531	experiment	RVvGV	199	0	18	1	0	TNEG	TNEG	3661	experiment	RVvGV	200	1	18	40	0	HIT	HIT	3821	experiment	RVvGV	201	1	6	40	0	HIT	HIT	3271	experiment	RVvGV	202	0	12	1	0	TNEG	TNEG	3461	experiment	RVvGV	203	0	3	1	0	TNEG	TNEG	4241	experiment	RVvGV	204	0	6	1	0	TNEG	TNEG	4141	experiment	RVvGV	205	1	3	40	0	HIT	HIT	3931	experiment	RVvGV	206	1	18	40	0	HIT	HIT	3881	experiment	RVvGV	207	0	3	1	0	TNEG	TNEG	3591	experiment	RVvGV	208	1	12	40	0	HIT	HIT	5371	experiment	RVvGV	209	0	3	1	0	TNEG	TNEG	3521	experiment	RVvGV	210	1	6	40	0	HIT	HIT	8311	experiment	RVvGV	211	1	6	40	0	HIT	HIT	4461	experiment	RVvGV	212	0	18	1	0	TNEG	TNEG	4211	experiment	RVvGV	213	0	3	1	0	TNEG	TNEG	4721	experiment	RVvGV	214	1	12	40	0	HIT	HIT	4321	experiment	RVvGV	215	1	6	40	0	HIT	HIT	3341	experiment	RVvGV	216	1	6	40	0	HIT	HIT	4301	experiment	RVvGV	217	1	3	40	0	HIT	HIT	4971	experiment	RVvGV	218	1	6	40	0	HIT	HIT	3571	experiment	RVvGV	219	1	12	40	0	HIT	HIT	4321	experiment	RVvGV	220	0	18	1	0	TNEG	TNEG	4111	experiment	RVvGV	221	0	18	1	0	TNEG	TNEG	4121	experiment	RVvGV	222	1	3	40	0	HIT	HIT	4081	experiment	RVvGV	223	0	18	1	0	TNEG	TNEG	5711	experiment	RVvGV	224	1	3	40	0	HIT	HIT	3191	experiment	RVvGV	225	0	6	1	0	TNEG	TNEG	3561	experiment	RVvGV	226	1	18	40	0	HIT	HIT	3391	experiment	RVvGV	227	1	6	40	0	HIT	HIT	3821	experiment	RVvGV	228	1	18	1	1	MISS	MISS	3151	experiment	RVvGV	229	1	18	40	0	HIT	HIT	2811	experiment	RVvGV	230	1	3	40	0	HIT	HIT	3031	experiment	RVvGV	231	1	6	40	0	HIT	HIT	2691	experiment	RVvGV	232	0	12	1	0	TNEG	TNEG	3371	experiment	RVvGV	233	0	12	1	0	TNEG	TNEG	3601	experiment	RVvGV	234	0	6	1	0	TNEG	TNEG	3241	experiment	RVvGV	235	0	12	1	0	TNEG	TNEG	3751	experiment	RVvGV	236	1	6	40	0	HIT	HIT	3331	experiment	RVvGV	237	0	12	1	0	TNEG	TNEG	3521	experiment	RVvGV	238	1	12	40	0	HIT	HIT	3441	experiment	RVvGV	239	0	3	1	0	TNEG	TNEG	5111	experiment	RVvGV	240	1	12	40	0	HIT	HIT	3671	experiment	RVvGV	241	0	6	1	0	TNEG	TNEG	4601	experiment	RVvGV	242	0	3	1	0	TNEG	TNEG	4711	experiment	RVvGV	243	1	18	40	0	HIT	HIT	4821	experiment	RVvGV	244	1	3	1	1	MISS	MISS	4711	experiment	RVvGV	245	0	3	1	0	TNEG	TNEG	4221	experiment	RVvGV	246	0	18	1	0	TNEG	TNEG	4661	experiment	RVvGV	247	1	3	40	0	HIT	HIT	3841	experiment	RVvGV	248	0	6	1	0	TNEG	TNEG	4371	experiment	RVvGV	249	0	3	1	0	TNEG	TNEG	4801	experiment	RVvGV	250	1	18	40	0	HIT	HIT	4731	experiment	RVvGV	251	1	18	40	0	HIT	HIT	4581	experiment	RVvGV	252	0	6	1	0	TNEG	TNEG	3891	experiment	RVvGV	253	1	12	40	0	HIT	HIT	6881	experiment	RVvGV	254	1	12	40	0	HIT	HIT	3361	experiment	RVvGV	255	1	12	40	0	HIT	HIT	4711	experiment	RVvGV	256	0	12	1	0	TNEG	TNEG	4151	experiment	RVvGV	257	0	6	1	0	TNEG	TNEG	6051	experiment	RVvGV	258	1	12	40	0	HIT	HIT	4161	experiment	RVvGV	259	1	3	40	0	HIT	HIT	3521	experiment	RVvGV	260	1	18	40	0	HIT	HIT	3631	experiment	RVvGV	261	0	18	1	0	TNEG	TNEG	4181	experiment	RVvGV	262	1	6	40	0	HIT	HIT	4281	experiment	RVvGV	263	0	18	1	0	TNEG	TNEG	4191	experiment	RVvGV	264	0	6	1	0	TNEG	TNEG	5411	experiment	RVvGV	265	0	3	1	0	TNEG	TNEG	3421	experiment	RVvGV	266	0	6	1	0	TNEG	TNEG	4521	experiment	RVvGV	267	0	18	1	0	TNEG	TNEG	4971	experiment	RVvGV	268	0	12	1	0	TNEG	TNEG	3901	experiment	RVvGV	269	0	6	1	0	TNEG	TNEG	3971	experiment	RVvGV	270	0	3	1	0	TNEG	TNEG	7841	experiment	RVvGV	271	0	6	1	0	TNEG	TNEG	4441	experiment	RVvGV	272	1	18	40	0	HIT	HIT	4581	experiment	RVvGV	273	1	12	40	0	HIT	HIT	3111	experiment	RVvGV	274	0	18	1	0	TNEG	TNEG	3951	experiment	RVvGV	275	1	3	40	0	HIT	HIT	3441	experiment	RVvGV	276	1	18	40	0	HIT	HIT	5791	experiment	RVvGV	277	1	3	1	1	MISS	MISS	4631	experiment	RVvGV	278	1	18	1	1	MISS	MISS	3701	experiment	RVvGV	279	1	3	1	1	MISS	MISS	4071	experiment	RVvGV	280	0	6	1	0	TNEG	TNEG	3491	experiment	RVvGV	281	1	18	40	0	HIT	HIT	3711	experiment	RVvGV	282	0	3	1	0	TNEG	TNEG	3991	experiment	RVvGV	283	0	12	1	0	TNEG	TNEG	3671	experiment	RVvGV	284	1	6	40	0	HIT	HIT	3491	experiment	RVvGV	285	1	6	40	0	HIT	HIT	2621	experiment	RVvGV	286	1	3	40	0	HIT	HIT	3761	experiment	RVvGV	287	0	18	1	0	TNEG	TNEG	3631	experiment	RVvGV	288	0	12	1	0	TNEG	TNEG	3511	experiment	RVvGV	289	0	3	1	0	TNEG	TNEG	3831	experiment	RVvGV	290	0	12	1	0	TNEG	TNEG	3681	experiment	RVvGV	291	0	12	1	0	TNEG	TNEG	3041	experiment	RVvGV	292	0	12	1	0	TNEG	TNEG	3111	experiment	RVvGV	293	0	3	1	0	TNEG	TNEG	3501	experiment	RVvGV	294	1	12	40	0	HIT	HIT	5111	experiment	RVvGV	295	1	6	40	0	HIT	HIT	5171	experiment	RVvGV	296	0	18	1	0	TNEG	TNEG	3631	experiment	RVvGV	297	0	3	1	0	TNEG	TNEG	4801	experiment	RVvGV	298	0	12	1	0	TNEG	TNEG	3831	experiment	RVvGV	299	1	18	40	0	HIT	HIT	4421	experiment	RVvGV	300	1	6	40	0	HIT	HIT	3401	experiment	RVvGV	302	0	12	1	0	TNEG	TNEG	3351	experiment	RVvGV	303	0	3	1	0	TNEG	TNEG	3841	experiment	RVvGV	304	0	6	1	0	TNEG	TNEG	2071	experiment	RVvGV	305	1	6	40	0	HIT	HIT	4211	experiment	RVvGV	306	0	6	1	0	TNEG	TNEG	2951	experiment	RVvGV	307	0	6	1	0	TNEG	TNEG	3271	experiment	RVvGV	308	0	6	1	0	TNEG	TNEG	2721	experiment	RVvGV	309	0	18	1	0	TNEG	TNEG	2551	experiment	RVvGV	310	0	12	1	0	TNEG	TNEG	2341	experiment	RVvGV	311	1	12	40	0	HIT	HIT	3701	experiment	RVvGV	312	1	6	40	0	HIT	HIT	3021	experiment	RVvGV	313	0	18	1	0	TNEG	TNEG	3111	experiment	RVvGV	314	1	18	40	0	HIT	HIT	3031	experiment	RVvGV	315	1	12	40	0	HIT	HIT	3701	experiment	RVvGV	316	1	18	40	0	HIT	HIT	3171	experiment	RVvGV	317	1	18	40	0	HIT	HIT	5021	experiment	RVvGV	318	0	6	1	0	TNEG	TNEG	3581	experiment	RVvGV	319	0	18	1	0	TNEG	TNEG	4381	experiment	RVvGV	320	0	18	1	0	TNEG	TNEG	2701	experiment	RVvGV	321	0	3	1	0	TNEG	TNEG	4641	experiment	RVvGV	322	1	18	40	0	HIT	HIT	3081	experiment	RVvGV	323	1	6	40	0	HIT	HIT	3341	experiment	RVvGV	324	0	12	1	0	TNEG	TNEG	5461	experiment	RVvGV	325	0	6	1	0	TNEG	TNEG	4071	experiment	RVvGV	326	0	12	1	0	TNEG	TNEG	5771	experiment	RVvGV	327	0	3	1	0	TNEG	TNEG	4071	experiment	RVvGV	328	1	18	40	0	HIT	HIT	3801	experiment	RVvGV	329	0	6	1	0	TNEG	TNEG	3261	experiment	RVvGV	330	1	18	40	0	HIT	HIT	3731	experiment	RVvGV	331	1	3	40	0	HIT	HIT	6001	experiment	RVvGV	332	0	12	1	0	TNEG	TNEG	10571	experiment	RVvGV	333	0	6	1	0	TNEG	TNEG	5011	experiment	RVvGV	334	1	18	40	0	HIT	HIT	4851	experiment	RVvGV	335	0	6	1	0	TNEG	TNEG	4061	experiment	RVvGV	336	0	6	1	0	TNEG	TNEG	3901	experiment	RVvGV	337	0	6	1	0	TNEG	TNEG	3091	experiment	RVvGV	338	1	12	40	0	HIT	HIT	3121	experiment	RVvGV	339	0	6	1	0	TNEG	TNEG	3411	experiment	RVvGV	340	0	3	1	0	TNEG	TNEG	3361	experiment	RVvGV	341	0	3	1	0	TNEG	TNEG	3601	experiment	RVvGV	342	1	6	40	0	HIT	HIT	4691	experiment	RVvGV	343	0	3	1	0	TNEG	TNEG	3671	experiment	RVvGV	344	0	12	1	0	TNEG	TNEG	6161	experiment	RVvGV	345	1	18	40	0	HIT	HIT	3791	experiment	RVvGV	346	1	18	40	0	HIT	HIT	4831	experiment	RVvGV	347	0	12	1	0	TNEG	TNEG	3671	experiment	RVvGV	348	0	18	1	0	TNEG	TNEG	3701	experiment	RVvGV	349	0	3	1	0	TNEG	TNEG	3271	experiment	RVvGV	350	0	12	1	0	TNEG	TNEG	4311	experiment	RVvGV	351	1	6	40	0	HIT	HIT	5411	experiment	RVvGV	352	1	6	40	0	HIT	HIT	7401	experiment	RVvGV	353	0	3	1	0	TNEG	TNEG	9351	experiment	RVvGV	354	0	3	1	0	TNEG	TNEG	9191	experiment	RVvGV	355	0	12	1	0	TNEG	TNEG	14881	experiment	RVvGV	356	0	6	1	0	TNEG	TNEG	3181	experiment	RVvGV	357	1	12	40	0	HIT	HIT	3841	experiment	RVvGV	358	1	18	1	1	MISS	MISS	2741	experiment	RVvGV	359	1	3	40	0	HIT	HIT	3351	experiment	RVvGV	360	1	12	40	0	HIT	HIT	3271	experiment	RVvGV	361	0	18	1	0	TNEG	TNEG	3241	experiment	RVvGV	362	0	18	1	0	TNEG	TNEG	3311	experiment	RVvGV	363	1	18	1	1	MISS	MISS	3051	experiment	RVvGV	364	1	3	40	0	HIT	HIT	2951	experiment	RVvGV	365	0	6	1	0	TNEG	TNEG	3491	experiment	RVvGV	366	1	3	40	0	HIT	HIT	2721	experiment	RVvGV	367	1	6	40	0	HIT	HIT	8771	experiment	RVvGV	368	0	12	1	0	TNEG	TNEG	5041	experiment	RVvGV	369	0	12	1	0	TNEG	TNEG	4871	experiment	RVvGV	370	0	6	1	0	TNEG	TNEG	5481	experiment	RVvGV	371	0	6	1	0	TNEG	TNEG	7011	experiment	RVvGV	372	0	3	1	0	TNEG	TNEG	3281	experiment	RVvGV	373	0	6	1	0	TNEG	TNEG	3321	experiment	RVvGV	374	1	12	40	0	HIT	HIT	4071	experiment	RVvGV	375	0	18	1	0	TNEG	TNEG	4501	experiment	RVvGV	376	0	6	1	0	TNEG	TNEG	5161	experiment	RVvGV	377	0	12	1	0	TNEG	TNEG	127201	experiment	RVvGV	378	1	12	40	0	HIT	HIT	3841	experiment	RVvGV	379	1	18	40	0	HIT	HIT	3451	experiment	RVvGV	380	0	12	1	0	TNEG	TNEG	3431	experiment	RVvGV	381	0	12	1	0	TNEG	TNEG	3271	experiment	RVvGV	382	1	18	40	0	HIT	HIT	3711	experiment	RVvGV	383	1	18	40	0	HIT	HIT	3471	experiment	RVvGV	384	1	6	40	0	HIT	HIT	3331	experiment	RVvGV	385	0	3	1	0	TNEG	TNEG	3911	experiment	RVvGV	386	1	3	40	0	HIT	HIT	3591	experiment	RVvGV	387	0	3	1	0	TNEG	TNEG	3431	experiment	RVvGV	388	0	18	1	0	TNEG	TNEG	3311	experiment	RVvGV	389	1	3	40	0	HIT	HIT	3921	experiment	RVvGV	390	0	3	1	0	TNEG	TNEG	4151	experiment	RVvGV	391	1	6	40	0	HIT	HIT	3471	experiment	RVvGV	392	1	6	40	0	HIT	HIT	2851	experiment	RVvGV	393	0	6	1	0	TNEG	TNEG	3341	experiment	RVvGV	394	0	6	1	0	TNEG	TNEG	3411	experiment	RVvGV	395	1	6	40	0	HIT	HIT	4361	experiment	RVvGV	396	0	18	1	0	TNEG	TNEG	3461	experiment	RVvGV	397	0	12	1	0	TNEG	TNEG	4311	experiment	RVvGV	398	0	6	1	0	TNEG	TNEG	3481	experiment	RVvGV	399	1	6	40	0	HIT	HIT	3491	experiment	RVvGV	400	0	18	1	0	TNEG	TNEG	3711	practice	RVvGV	1	1	3	40	0	HIT	HIT	8491	practice	RVvGV	3	0	18	1	0	TNEG	TNEG	3301	practice	RVvGV	4	0	6	1	0	TNEG	TNEG	2951	practice	RVvGV	5	0	3	1	0	TNEG	TNEG	3761	practice	RVvGV	6	1	18	40	0	HIT	HIT	3501	practice	RVvGV	7	1	3	40	0	HIT	HIT	3131	practice	RVvGV	8	1	18	1	1	MISS	MISS	2701	practice	RVvGV	9	0	18	1	0	TNEG	TNEG	3261	practice	RVvGV	10	0	3	1	0	TNEG	TNEG	6001	experiment	RVvGV	1	1	6	40	0	HIT	HIT	3321	experiment	RVvGV	2	0	12	1	0	TNEG	TNEG	3071	experiment	RVvGV	3	0	3	1	0	TNEG	TNEG	3361	experiment	RVvGV	4	0	6	1	0	TNEG	TNEG	2781	experiment	RVvGV	5	1	18	40	0	HIT	HIT	3251	experiment	RVvGV	6	1	3	40	0	HIT	HIT	2971	experiment	RVvGV	7	0	6	1	0	TNEG	TNEG	3741	experiment	RVvGV	8	1	12	40	0	HIT	HIT	4031	experiment	RVvGV	9	0	12	1	0	TNEG	TNEG	3311	experiment	RVvGV	10	0	3	1	0	TNEG	TNEG	3531	experiment	RVvGV	11	1	12	40	0	HIT	HIT	3701	experiment	RVvGV	12	0	6	1	0	TNEG	TNEG	3501	experiment	RVvGV	13	0	18	1	0	TNEG	TNEG	3261	experiment	RVvGV	14	1	3	40	0	HIT	HIT	3521	experiment	RVvGV	15	1	3	40	0	HIT	HIT	3031	experiment	RVvGV	16	0	6	1	0	TNEG	TNEG	3101	experiment	RVvGV	17	1	3	40	0	HIT	HIT	2801	experiment	RVvGV	18	0	3	1	0	TNEG	TNEG	3201	experiment	RVvGV	19	0	3	1	0	TNEG	TNEG	3191	experiment	RVvGV	20	0	12	1	0	TNEG	TNEG	3451	experiment	RVvGV	21	0	3	1	0	TNEG	TNEG	2961	experiment	RVvGV	22	0	3	1	0	TNEG	TNEG	3601	experiment	RVvGV	23	0	6	1	0	TNEG	TNEG	3171	experiment	RVvGV	24	0	18	1	0	TNEG	TNEG	3651	experiment	RVvGV	25	0	18	1	0	TNEG	TNEG	8041	experiment	RVvGV	26	0	6	1	0	TNEG	TNEG	3421	experiment	RVvGV	27	1	18	40	0	HIT	HIT	3481	experiment	RVvGV	28	1	12	40	0	HIT	HIT	4001	experiment	RVvGV	29	0	3	1	0	TNEG	TNEG	3361	experiment	RVvGV	30	1	12	40	0	HIT	HIT	3531	experiment	RVvGV	31	0	6	1	0	TNEG	TNEG	3101	experiment	RVvGV	32	0	18	1	0	TNEG	TNEG	4601	experiment	RVvGV	33	0	3	1	0	TNEG	TNEG	3031	experiment	RVvGV	34	1	3	40	0	HIT	HIT	3671	experiment	RVvGV	35	0	12	1	0	TNEG	TNEG	4321	experiment	RVvGV	36	1	3	40	0	HIT	HIT	3671	experiment	RVvGV	37	1	12	40	0	HIT	HIT	4161	experiment	RVvGV	38	1	6	40	0	HIT	HIT	3411	experiment	RVvGV	39	1	6	40	0	HIT	HIT	3491	experiment	RVvGV	40	0	18	1	0	TNEG	TNEG	3071	experiment	RVvGV	41	1	12	40	0	HIT	HIT	2871	experiment	RVvGV	42	1	6	40	0	HIT	HIT	4761	experiment	RVvGV	43	1	12	1	1	MISS	MISS	3431	experiment	RVvGV	44	0	6	1	0	TNEG	TNEG	3481	experiment	RVvGV	45	0	6	1	0	TNEG	TNEG	3721	experiment	RVvGV	46	0	3	1	0	TNEG	TNEG	3351	experiment	RVvGV	47	0	12	1	0	TNEG	TNEG	3271	experiment	RVvGV	48	1	6	40	0	HIT	HIT	3011	experiment	RVvGV	49	1	3	40	0	HIT	HIT	3031	experiment	RVvGV	50	0	3	1	0	TNEG	TNEG	3991	experiment	RVvGV	51	0	12	1	0	TNEG	TNEG	4221	experiment	RVvGV	52	1	18	40	0	HIT	HIT	2981	experiment	RVvGV	53	1	3	40	0	HIT	HIT	4051	experiment	RVvGV	54	1	6	40	0	HIT	HIT	3401	experiment	RVvGV	55	0	6	1	0	TNEG	TNEG	3561	experiment	RVvGV	56	1	18	40	0	HIT	HIT	3381	experiment	RVvGV	57	0	12	1	0	TNEG	TNEG	3511	experiment	RVvGV	58	0	6	1	0	TNEG	TNEG	2921	experiment	RVvGV	59	0	18	1	0	TNEG	TNEG	3131	experiment	RVvGV	60	0	18	1	0	TNEG	TNEG	4091	experiment	RVvGV	61	1	18	40	0	HIT	HIT	8421	experiment	RVvGV	62	1	6	40	0	HIT	HIT	3481	experiment	RVvGV	63	0	18	1	0	TNEG	TNEG	3301	experiment	RVvGV	64	1	18	40	0	HIT	HIT	3071	experiment	RVvGV	65	1	3	40	0	HIT	HIT	3111	experiment	RVvGV	66	0	3	1	0	TNEG	TNEG	3351	experiment	RVvGV	67	1	3	40	0	HIT	HIT	3031	experiment	RVvGV	68	1	3	40	0	HIT	HIT	3431	experiment	RVvGV	69	0	3	1	0	TNEG	TNEG	3591	experiment	RVvGV	70	0	6	1	0	TNEG	TNEG	4041	experiment	RVvGV	71	1	12	40	0	HIT	HIT	3751	experiment	RVvGV	72	1	6	40	0	HIT	HIT	3651	experiment	RVvGV	73	0	12	1	0	TNEG	TNEG	4071	experiment	RVvGV	74	1	18	40	0	HIT	HIT	5381	experiment	RVvGV	75	1	6	40	0	HIT	HIT	3811	experiment	RVvGV	76	0	18	1	0	TNEG	TNEG	3861	experiment	RVvGV	77	0	3	1	0	TNEG	TNEG	4791	experiment	RVvGV	78	1	18	40	0	HIT	HIT	3221	experiment	RVvGV	79	1	18	1	1	MISS	MISS	3141	experiment	RVvGV	80	0	12	1	0	TNEG	TNEG	3911	experiment	RVvGV	81	1	3	40	0	HIT	HIT	3431	experiment	RVvGV	82	0	3	1	0	TNEG	TNEG	3261	experiment	RVvGV	83	0	18	40	1	FA	FA	3451	experiment	RVvGV	84	1	12	40	0	HIT	HIT	3271	experiment	RVvGV	85	0	18	1	0	TNEG	TNEG	4261	experiment	RVvGV	87	1	6	40	0	HIT	HIT	3531	experiment	RVvGV	88	1	18	40	0	HIT	HIT	3821	experiment	RVvGV	89	1	12	40	0	HIT	HIT	3151	experiment	RVvGV	90	1	3	40	0	HIT	HIT	3361	experiment	RVvGV	91	1	12	40	0	HIT	HIT	2741	experiment	RVvGV	92	0	12	1	0	TNEG	TNEG	3311	experiment	RVvGV	93	0	12	1	0	TNEG	TNEG	3381	experiment	RVvGV	94	0	6	1	0	TNEG	TNEG	3661	experiment	RVvGV	95	0	12	1	0	TNEG	TNEG	3051	experiment	RVvGV	96	1	12	40	0	HIT	HIT	3141	experiment	RVvGV	97	0	12	1	0	TNEG	TNEG	3541	experiment	RVvGV	98	0	6	1	0	TNEG	TNEG	3581	experiment	RVvGV	99	1	3	40	0	HIT	HIT	3431	experiment	RVvGV	100	0	18	1	0	TNEG	TNEG	2861	experiment	RVvGV	101	1	6	40	0	HIT	HIT	4061	experiment	RVvGV	102	1	12	40	0	HIT	HIT	3681	experiment	RVvGV	103	0	12	1	0	TNEG	TNEG	4501	experiment	RVvGV	104	0	6	1	0	TNEG	TNEG	3581	experiment	RVvGV	105	0	12	1	0	TNEG	TNEG	2821	experiment	RVvGV	106	1	18	40	0	HIT	HIT	3881	experiment	RVvGV	107	0	12	1	0	TNEG	TNEG	3451	experiment	RVvGV	108	1	12	40	0	HIT	HIT	3371	experiment	RVvGV	109	0	12	1	0	TNEG	TNEG	3371	experiment	RVvGV	110	0	12	1	0	TNEG	TNEG	3131	experiment	RVvGV	111	1	12	40	0	HIT	HIT	3771	experiment	RVvGV	112	1	18	40	0	HIT	HIT	3231	experiment	RVvGV	113	0	6	1	0	TNEG	TNEG	3491	experiment	RVvGV	114	1	18	40	0	HIT	HIT	3481	experiment	RVvGV	115	0	18	1	0	TNEG	TNEG	3641	experiment	RVvGV	116	0	12	1	0	TNEG	TNEG	3531	experiment	RVvGV	117	0	6	1	0	TNEG	TNEG	3651	experiment	RVvGV	118	1	18	40	0	HIT	HIT	3641	experiment	RVvGV	119	1	3	40	0	HIT	HIT	4401	experiment	RVvGV	120	1	12	40	0	HIT	HIT	4161	experiment	RVvGV	121	1	3	40	0	HIT	HIT	2801	experiment	RVvGV	122	0	18	1	0	TNEG	TNEG	3071	experiment	RVvGV	123	1	12	40	0	HIT	HIT	3121	experiment	RVvGV	124	0	12	1	0	TNEG	TNEG	3121	experiment	RVvGV	125	1	6	40	0	HIT	HIT	3731	experiment	RVvGV	126	1	3	40	0	HIT	HIT	2871	experiment	RVvGV	127	0	6	1	0	TNEG	TNEG	3081	experiment	RVvGV	128	1	6	40	0	HIT	HIT	4281	experiment	RVvGV	129	1	12	40	0	HIT	HIT	3181	experiment	RVvGV	130	1	18	40	0	HIT	HIT	3381	experiment	RVvGV	131	0	6	1	0	TNEG	TNEG	3571	experiment	RVvGV	132	1	6	40	0	HIT	HIT	3091	experiment	RVvGV	133	1	3	40	0	HIT	HIT	3191	experiment	RVvGV	134	0	3	1	0	TNEG	TNEG	3191	experiment	RVvGV	135	1	6	40	0	HIT	HIT	3651	experiment	RVvGV	136	0	18	1	0	TNEG	TNEG	3941	experiment	RVvGV	137	1	6	40	0	HIT	HIT	4041	experiment	RVvGV	138	0	6	1	0	TNEG	TNEG	3561	experiment	RVvGV	139	0	6	1	0	TNEG	TNEG	4521	experiment	RVvGV	140	1	12	40	0	HIT	HIT	4071	experiment	RVvGV	141	1	3	40	0	HIT	HIT	3831	experiment	RVvGV	142	0	6	1	0	TNEG	TNEG	3561	experiment	RVvGV	143	0	6	1	0	TNEG	TNEG	4041	experiment	RVvGV	144	0	12	1	0	TNEG	TNEG	3751	experiment	RVvGV	145	1	6	40	0	HIT	HIT	3801	experiment	RVvGV	146	1	6	40	0	HIT	HIT	3241	experiment	RVvGV	147	1	6	40	0	HIT	HIT	4441	experiment	RVvGV	148	0	18	1	0	TNEG	TNEG	4411	experiment	RVvGV	149	0	3	1	0	TNEG	TNEG	3831	experiment	RVvGV	150	0	18	1	0	TNEG	TNEG	2901	experiment	RVvGV	151	1	12	40	0	HIT	HIT	3671	experiment	RVvGV	152	0	3	1	0	TNEG	TNEG	3751	experiment	RVvGV	153	1	18	40	0	HIT	HIT	3461	experiment	RVvGV	154	0	6	1	0	TNEG	TNEG	5881	experiment	RVvGV	155	0	6	1	0	TNEG	TNEG	4201	experiment	RVvGV	156	1	18	40	0	HIT	HIT	4181	experiment	RVvGV	157	1	12	40	0	HIT	HIT	3671	experiment	RVvGV	158	1	6	40	0	HIT	HIT	3321	experiment	RVvGV	159	0	12	1	0	TNEG	TNEG	3431	experiment	RVvGV	160	1	18	40	0	HIT	HIT	4021	experiment	RVvGV	161	1	12	40	0	HIT	HIT	5671	experiment	RVvGV	162	1	3	40	0	HIT	HIT	3991	experiment	RVvGV	163	0	3	1	0	TNEG	TNEG	4151	experiment	RVvGV	164	0	18	1	0	TNEG	TNEG	3861	experiment	RVvGV	165	0	12	1	0	TNEG	TNEG	5411	experiment	RVvGV	166	1	12	40	0	HIT	HIT	3511	experiment	RVvGV	167	0	3	1	0	TNEG	TNEG	3751	experiment	RVvGV	168	0	18	1	0	TNEG	TNEG	3621	experiment	RVvGV	169	1	12	1	1	MISS	MISS	3431	experiment	RVvGV	170	1	3	40	0	HIT	HIT	3271	experiment	RVvGV	171	1	18	40	0	HIT	HIT	3461	experiment	RVvGV	172	0	12	1	0	TNEG	TNEG	5031	experiment	RVvGV	173	0	3	1	0	TNEG	TNEG	4561	experiment	RVvGV	174	1	12	40	0	HIT	HIT	4631	experiment	RVvGV	175	1	18	40	0	HIT	HIT	3781	experiment	RVvGV	176	0	3	1	0	TNEG	TNEG	4711	experiment	RVvGV	177	1	3	40	0	HIT	HIT	3671	experiment	RVvGV	178	1	12	40	0	HIT	HIT	3441	experiment	RVvGV	179	0	18	1	0	TNEG	TNEG	5221	experiment	RVvGV	180	0	18	1	0	TNEG	TNEG	3461	experiment	RVvGV	181	0	6	1	0	TNEG	TNEG	3571	experiment	RVvGV	182	0	3	1	0	TNEG	TNEG	4071	experiment	RVvGV	183	0	3	1	0	TNEG	TNEG	6391	experiment	RVvGV	184	0	12	1	0	TNEG	TNEG	3351	experiment	RVvGV	185	1	3	40	0	HIT	HIT	3671	experiment	RVvGV	186	0	6	1	0	TNEG	TNEG	3881	experiment	RVvGV	187	1	12	40	0	HIT	HIT	4231	experiment	RVvGV	188	0	3	1	0	TNEG	TNEG	4061	experiment	RVvGV	189	0	12	1	0	TNEG	TNEG	3671	experiment	RVvGV	190	1	3	40	0	HIT	HIT	3271	experiment	RVvGV	191	0	6	1	0	TNEG	TNEG	2931	experiment	RVvGV	192	0	6	1	0	TNEG	TNEG	3081	experiment	RVvGV	193	0	3	1	0	TNEG	TNEG	3601	experiment	RVvGV	194	1	12	40	0	HIT	HIT	3671	experiment	RVvGV	195	1	12	40	0	HIT	HIT	3031	experiment	RVvGV	196	0	6	1	0	TNEG	TNEG	3481	experiment	RVvGV	197	1	12	40	0	HIT	HIT	2791	experiment	RVvGV	198	1	6	40	0	HIT	HIT	3491	experiment	RVvGV	199	0	18	1	0	TNEG	TNEG	2431	experiment	RVvGV	200	1	12	40	0	HIT	HIT	4631	experiment	RVvGV	201	0	12	1	0	TNEG	TNEG	3191	experiment	RVvGV	202	1	6	40	0	HIT	HIT	2841	experiment	RVvGV	203	1	12	40	0	HIT	HIT	2631	experiment	RVvGV	204	0	12	1	0	TNEG	TNEG	3431	experiment	RVvGV	205	1	3	40	0	HIT	HIT	3421	experiment	RVvGV	206	0	6	1	0	TNEG	TNEG	3651	experiment	RVvGV	207	1	6	40	0	HIT	HIT	3171	experiment	RVvGV	208	0	12	1	0	TNEG	TNEG	4551	experiment	RVvGV	209	1	18	40	0	HIT	HIT	3711	experiment	RVvGV	210	0	6	1	0	TNEG	TNEG	3561	experiment	RVvGV	211	0	3	1	0	TNEG	TNEG	3361	experiment	RVvGV	212	1	18	40	0	HIT	HIT	3301	experiment	RVvGV	213	0	12	1	0	TNEG	TNEG	4141	experiment	RVvGV	214	1	18	40	0	HIT	HIT	3701	experiment	RVvGV	215	1	6	40	0	HIT	HIT	2931	experiment	RVvGV	216	1	18	40	0	HIT	HIT	2901	experiment	RVvGV	217	1	6	40	0	HIT	HIT	5641	experiment	RVvGV	218	1	3	40	0	HIT	HIT	3591	experiment	RVvGV	219	1	6	40	0	HIT	HIT	3961	experiment	RVvGV	220	1	3	40	0	HIT	HIT	4791	experiment	RVvGV	221	0	18	1	0	TNEG	TNEG	4331	experiment	RVvGV	222	0	18	1	0	TNEG	TNEG	4021	experiment	RVvGV	223	1	6	40	0	HIT	HIT	5721	experiment	RVvGV	224	0	6	1	0	TNEG	TNEG	3961	experiment	RVvGV	225	1	12	40	0	HIT	HIT	3431	experiment	RVvGV	226	0	12	1	0	TNEG	TNEG	4081	experiment	RVvGV	227	1	12	40	0	HIT	HIT	3751	experiment	RVvGV	228	1	18	40	0	HIT	HIT	3141	experiment	RVvGV	229	0	12	1	0	TNEG	TNEG	3431	experiment	RVvGV	230	0	6	1	0	TNEG	TNEG	2991	experiment	RVvGV	231	0	3	1	0	TNEG	TNEG	3511	experiment	RVvGV	232	0	3	1	0	TNEG	TNEG	3511	experiment	RVvGV	233	0	6	1	0	TNEG	TNEG	3241	experiment	RVvGV	234	1	18	40	0	HIT	HIT	3141	experiment	RVvGV	235	1	12	40	0	HIT	HIT	3431	experiment	RVvGV	236	1	3	40	0	HIT	HIT	3191	experiment	RVvGV	237	0	18	1	0	TNEG	TNEG	3141	experiment	RVvGV	238	0	6	1	0	TNEG	TNEG	3081	experiment	RVvGV	239	1	6	40	0	HIT	HIT	3721	experiment	RVvGV	240	0	12	1	0	TNEG	TNEG	3281	experiment	RVvGV	241	0	3	40	1	FA	FA	2881	experiment	RVvGV	242	0	12	1	0	TNEG	TNEG	2951	experiment	RVvGV	243	0	3	1	0	TNEG	TNEG	3511	experiment	RVvGV	244	0	6	1	0	TNEG	TNEG	2851	experiment	RVvGV	245	1	3	40	0	HIT	HIT	3031	experiment	RVvGV	246	1	12	40	0	HIT	HIT	3031	experiment	RVvGV	247	0	18	1	0	TNEG	TNEG	3461	experiment	RVvGV	248	0	3	1	0	TNEG	TNEG	3581	experiment	RVvGV	249	0	18	1	0	TNEG	TNEG	3461	experiment	RVvGV	250	1	3	40	0	HIT	HIT	3591	experiment	RVvGV	251	0	12	1	0	TNEG	TNEG	4381	experiment	RVvGV	252	0	3	1	0	TNEG	TNEG	3581	experiment	RVvGV	253	0	18	1	0	TNEG	TNEG	9541	experiment	RVvGV	254	1	6	40	0	HIT	HIT	3961	experiment	RVvGV	255	0	3	1	0	TNEG	TNEG	3361	experiment	RVvGV	256	1	3	40	0	HIT	HIT	3581	experiment	RVvGV	257	0	6	1	0	TNEG	TNEG	4851	experiment	RVvGV	258	0	18	1	0	TNEG	TNEG	3781	experiment	RVvGV	259	1	6	40	0	HIT	HIT	3961	experiment	RVvGV	260	0	12	1	0	TNEG	TNEG	3111	experiment	RVvGV	261	0	12	1	0	TNEG	TNEG	3431	experiment	RVvGV	262	1	18	40	0	HIT	HIT	3381	experiment	RVvGV	263	0	6	1	0	TNEG	TNEG	3171	experiment	RVvGV	264	0	6	1	0	TNEG	TNEG	3481	experiment	RVvGV	265	1	18	1	1	MISS	MISS	2741	experiment	RVvGV	266	0	3	1	0	TNEG	TNEG	3341	experiment	RVvGV	267	0	18	1	0	TNEG	TNEG	3781	experiment	RVvGV	268	1	18	40	0	HIT	HIT	3461	experiment	RVvGV	269	0	12	1	0	TNEG	TNEG	3601	experiment	RVvGV	270	1	18	40	0	HIT	HIT	3461	experiment	RVvGV	271	1	3	40	0	HIT	HIT	3671	experiment	RVvGV	272	1	6	40	0	HIT	HIT	4291	experiment	RVvGV	273	0	12	1	0	TNEG	TNEG	9511	experiment	RVvGV	274	0	6	1	0	TNEG	TNEG	4681	experiment	RVvGV	275	0	12	1	0	TNEG	TNEG	3111	experiment	RVvGV	276	0	3	1	0	TNEG	TNEG	3751	experiment	RVvGV	277	0	18	1	0	TNEG	TNEG	4741	experiment	RVvGV	278	1	12	40	0	HIT	HIT	4481	experiment	RVvGV	279	0	6	1	0	TNEG	TNEG	3481	experiment	RVvGV	280	1	12	40	0	HIT	HIT	3021	experiment	RVvGV	281	0	18	1	0	TNEG	TNEG	2821	experiment	RVvGV	282	1	18	40	0	HIT	HIT	4171	experiment	RVvGV	283	1	12	40	0	HIT	HIT	3191	experiment	RVvGV	284	0	3	1	0	TNEG	TNEG	3361	experiment	RVvGV	285	0	6	1	0	TNEG	TNEG	2841	experiment	RVvGV	286	0	6	1	0	TNEG	TNEG	3001	experiment	RVvGV	287	1	6	40	0	HIT	HIT	3721	experiment	RVvGV	288	1	6	40	0	HIT	HIT	3091	experiment	RVvGV	289	1	3	40	0	HIT	HIT	3271	experiment	RVvGV	290	1	18	40	0	HIT	HIT	3861	experiment	RVvGV	291	1	3	1	1	MISS	MISS	3111	experiment	RVvGV	292	0	18	1	0	TNEG	TNEG	4181	experiment	RVvGV	293	1	6	40	0	HIT	HIT	4041	experiment	RVvGV	294	1	3	40	0	HIT	HIT	3341	experiment	RVvGV	295	0	6	1	0	TNEG	TNEG	5641	experiment	RVvGV	296	0	18	1	0	TNEG	TNEG	2981	experiment	RVvGV	297	0	6	1	0	TNEG	TNEG	2931	experiment	RVvGV	298	0	12	1	0	TNEG	TNEG	5111	experiment	RVvGV	299	1	18	40	0	HIT	HIT	6491	experiment	RVvGV	300	1	3	40	0	HIT	HIT	4301	experiment	RVvGV	301	1	12	40	0	HIT	HIT	3021	experiment	RVvGV	302	1	12	40	0	HIT	HIT	3431	experiment	RVvGV	303	0	3	1	0	TNEG	TNEG	4711	experiment	RVvGV	304	0	18	1	0	TNEG	TNEG	4421	experiment	RVvGV	305	0	18	1	0	TNEG	TNEG	3141	experiment	RVvGV	306	1	12	40	0	HIT	HIT	3991	experiment	RVvGV	307	0	3	1	0	TNEG	TNEG	2951	experiment	RVvGV	308	1	6	40	0	HIT	HIT	3251	experiment	RVvGV	309	0	6	1	0	TNEG	TNEG	3391	experiment	RVvGV	310	1	6	40	0	HIT	HIT	3481	experiment	RVvGV	311	0	6	1	0	TNEG	TNEG	3731	experiment	RVvGV	312	1	3	40	0	HIT	HIT	3181	experiment	RVvGV	313	0	3	1	0	TNEG	TNEG	3911	experiment	RVvGV	314	1	3	40	0	HIT	HIT	4381	experiment	RVvGV	315	1	18	40	0	HIT	HIT	3221	experiment	RVvGV	316	1	3	40	0	HIT	HIT	2951	experiment	RVvGV	317	1	6	40	0	HIT	HIT	3161	experiment	RVvGV	318	1	6	40	0	HIT	HIT	8521	experiment	RVvGV	319	0	12	1	0	TNEG	TNEG	3511	experiment	RVvGV	320	0	6	1	0	TNEG	TNEG	3241	experiment	RVvGV	321	1	6	40	0	HIT	HIT	10361	experiment	RVvGV	322	0	18	1	0	TNEG	TNEG	3381	experiment	RVvGV	323	0	12	1	0	TNEG	TNEG	3031	experiment	RVvGV	324	0	6	1	0	TNEG	TNEG	3321	experiment	RVvGV	325	0	18	1	0	TNEG	TNEG	3061	experiment	RVvGV	326	1	6	40	0	HIT	HIT	3081	experiment	RVvGV	327	0	18	1	0	TNEG	TNEG	5301	experiment	RVvGV	328	1	18	40	0	HIT	HIT	3701	experiment	RVvGV	329	1	3	40	0	HIT	HIT	3831	experiment	RVvGV	330	0	18	1	0	TNEG	TNEG	6021	experiment	RVvGV	331	0	18	1	0	TNEG	TNEG	3131	experiment	RVvGV	332	1	6	40	0	HIT	HIT	3071	experiment	RVvGV	333	1	12	40	0	HIT	HIT	2631	experiment	RVvGV	334	1	6	1	1	MISS	MISS	3001	experiment	RVvGV	335	1	12	40	0	HIT	HIT	3511	experiment	RVvGV	336	0	12	1	0	TNEG	TNEG	3271	experiment	RVvGV	337	0	3	1	0	TNEG	TNEG	3591	experiment	RVvGV	338	1	6	40	0	HIT	HIT	3081	experiment	RVvGV	339	1	18	40	0	HIT	HIT	4261	experiment	RVvGV	340	0	3	1	0	TNEG	TNEG	4151	experiment	RVvGV	341	1	3	1	1	MISS	MISS	2951	experiment	RVvGV	342	1	12	40	0	HIT	HIT	3351	experiment	RVvGV	343	0	18	1	0	TNEG	TNEG	3701	experiment	RVvGV	344	1	18	40	0	HIT	HIT	3941	experiment	RVvGV	345	0	6	1	0	TNEG	TNEG	3241	experiment	RVvGV	346	0	6	1	0	TNEG	TNEG	3241	experiment	RVvGV	347	1	6	40	0	HIT	HIT	4671	experiment	RVvGV	348	0	12	1	0	TNEG	TNEG	4961	experiment	RVvGV	349	1	6	40	0	HIT	HIT	4281	experiment	RVvGV	350	1	12	40	0	HIT	HIT	3751	experiment	RVvGV	351	1	12	40	0	HIT	HIT	6781	experiment	RVvGV	352	0	3	1	0	TNEG	TNEG	3021	experiment	RVvGV	353	0	3	40	1	FA	FA	3191	experiment	RVvGV	354	1	18	40	0	HIT	HIT	2981	experiment	RVvGV	355	0	12	1	0	TNEG	TNEG	3751	experiment	RVvGV	356	1	18	40	0	HIT	HIT	4491	experiment	RVvGV	357	0	3	1	0	TNEG	TNEG	3831	experiment	RVvGV	358	1	12	40	0	HIT	HIT	3751	experiment	RVvGV	359	1	12	40	0	HIT	HIT	3511	experiment	RVvGV	360	0	12	1	0	TNEG	TNEG	3031	experiment	RVvGV	361	1	18	40	0	HIT	HIT	5941	experiment	RVvGV	362	0	3	1	0	TNEG	TNEG	6951	experiment	RVvGV	364	0	6	1	0	TNEG	TNEG	4341	experiment	RVvGV	365	1	3	40	0	HIT	HIT	3111	experiment	RVvGV	366	0	18	1	0	TNEG	TNEG	5191	experiment	RVvGV	367	0	18	1	0	TNEG	TNEG	3021	experiment	RVvGV	368	0	18	1	0	TNEG	TNEG	2701	experiment	RVvGV	369	0	3	1	0	TNEG	TNEG	3201	experiment	RVvGV	370	0	18	1	0	TNEG	TNEG	3101	experiment	RVvGV	371	0	3	1	0	TNEG	TNEG	3201	experiment	RVvGV	372	1	12	40	0	HIT	HIT	3851	experiment	RVvGV	373	0	12	1	0	TNEG	TNEG	4421	experiment	RVvGV	374	1	3	40	0	HIT	HIT	4721	experiment	RVvGV	375	0	12	1	0	TNEG	TNEG	3301	experiment	RVvGV	376	0	3	1	0	TNEG	TNEG	5201	experiment	RVvGV	377	1	18	40	0	HIT	HIT	3741	experiment	RVvGV	378	1	12	40	0	HIT	HIT	2981	experiment	RVvGV	379	0	3	1	0	TNEG	TNEG	3601	experiment	RVvGV	380	1	3	40	0	HIT	HIT	3441	experiment	RVvGV	381	1	3	40	0	HIT	HIT	3041	experiment	RVvGV	382	0	3	1	0	TNEG	TNEG	3601	experiment	RVvGV	383	0	6	1	0	TNEG	TNEG	3421	experiment	RVvGV	384	1	3	40	0	HIT	HIT	3441	experiment	RVvGV	385	0	3	1	0	TNEG	TNEG	4001	experiment	RVvGV	386	1	3	40	0	HIT	HIT	2881	experiment	RVvGV	387	0	18	1	0	TNEG	TNEG	3011	experiment	RVvGV	388	0	18	1	0	TNEG	TNEG	3881	experiment	RVvGV	389	0	3	1	0	TNEG	TNEG	3681	experiment	RVvGV	390	1	18	40	0	HIT	HIT	16281	experiment	RVvGV	391	1	12	40	0	HIT	HIT	3131	experiment	RVvGV	392	1	12	40	0	HIT	HIT	2811	experiment	RVvGV	393	1	12	40	0	HIT	HIT	2491	experiment	RVvGV	394	0	3	1	0	TNEG	TNEG	3431	experiment	RVvGV	395	0	12	1	0	TNEG	TNEG	3201	experiment	RVvGV	396	1	6	40	0	HIT	HIT	3171	experiment	RVvGV	397	0	6	1	0	TNEG	TNEG	3741	experiment	RVvGV	398	1	12	40	0	HIT	HIT	3521	experiment	RVvGV	399	0	18	1	0	TNEG	TNEG	5391	experiment	RVvGV	400	1	12	40	0	HIT	HIT	3041	practice	RVvGV	1	0	6	1	0	TNEG	TNEG	7281	practice	RVvGV	3	0	3	1	0	TNEG	TNEG	3001	practice	RVvGV	4	1	3	40	0	HIT	HIT	3271	practice	RVvGV	5	0	18	1	0	TNEG	TNEG	2871	practice	RVvGV	6	1	18	40	0	HIT	HIT	3271	practice	RVvGV	7	1	3	1	1	MISS	MISS	3281	practice	RVvGV	8	0	12	40	1	FA	FA	2831	practice	RVvGV	9	1	6	40	0	HIT	HIT	4301	practice	RVvGV	10	0	18	1	0	TNEG	TNEG	3101	experiment	RVvGV	1	0	3	1	0	TNEG	TNEG	3351	experiment	RVvGV	2	1	12	40	0	HIT	HIT	3381	experiment	RVvGV	3	1	3	40	0	HIT	HIT	3291	experiment	RVvGV	4	0	18	1	0	TNEG	TNEG	2871	experiment	RVvGV	5	0	12	1	0	TNEG	TNEG	2991	experiment	RVvGV	6	1	6	40	0	HIT	HIT	3031	experiment	RVvGV	7	1	12	40	0	HIT	HIT	4501	experiment	RVvGV	8	1	18	1	1	MISS	MISS	3101	experiment	RVvGV	9	1	18	40	0	HIT	HIT	2861	experiment	RVvGV	10	1	6	40	0	HIT	HIT	5341	experiment	RVvGV	12	1	6	40	0	HIT	HIT	4341	experiment	RVvGV	13	0	18	1	0	TNEG	TNEG	3181	experiment	RVvGV	14	1	12	40	0	HIT	HIT	3071	experiment	RVvGV	15	1	3	40	0	HIT	HIT	2731	experiment	RVvGV	16	0	3	1	0	TNEG	TNEG	2891	experiment	RVvGV	17	0	3	1	0	TNEG	TNEG	4161	experiment	RVvGV	18	0	3	1	0	TNEG	TNEG	3131	experiment	RVvGV	19	1	18	40	0	HIT	HIT	3501	experiment	RVvGV	20	0	3	1	0	TNEG	TNEG	2881	experiment	RVvGV	21	0	12	1	0	TNEG	TNEG	2811	experiment	RVvGV	22	1	12	40	0	HIT	HIT	3301	experiment	RVvGV	23	1	12	40	0	HIT	HIT	3621	experiment	RVvGV	24	0	12	1	0	TNEG	TNEG	4351	experiment	RVvGV	25	1	3	40	0	HIT	HIT	2881	experiment	RVvGV	26	0	12	1	0	TNEG	TNEG	3461	experiment	RVvGV	27	1	12	40	0	HIT	HIT	2821	experiment	RVvGV	28	1	6	40	0	HIT	HIT	2621	experiment	RVvGV	29	0	3	1	0	TNEG	TNEG	3281	experiment	RVvGV	30	1	3	40	0	HIT	HIT	3041	experiment	RVvGV	31	0	3	1	0	TNEG	TNEG	3601	experiment	RVvGV	32	0	12	1	0	TNEG	TNEG	3611	experiment	RVvGV	33	1	3	1	1	MISS	MISS	3361	experiment	RVvGV	34	1	6	40	0	HIT	HIT	4781	experiment	RVvGV	35	1	18	40	0	HIT	HIT	3091	experiment	RVvGV	36	1	18	40	0	HIT	HIT	3171	experiment	RVvGV	37	1	12	40	0	HIT	HIT	3211	experiment	RVvGV	38	1	6	40	0	HIT	HIT	3011	experiment	RVvGV	39	1	12	40	0	HIT	HIT	2971	experiment	RVvGV	40	1	3	40	0	HIT	HIT	3431	experiment	RVvGV	41	0	3	1	0	TNEG	TNEG	3591	experiment	RVvGV	42	0	18	1	0	TNEG	TNEG	3401	experiment	RVvGV	43	1	6	40	0	HIT	HIT	3411	experiment	RVvGV	44	0	18	1	0	TNEG	TNEG	3481	experiment	RVvGV	45	1	18	40	0	HIT	HIT	3471	experiment	RVvGV	46	0	6	1	0	TNEG	TNEG	4211	experiment	RVvGV	47	1	12	40	0	HIT	HIT	2641	experiment	RVvGV	48	1	18	40	0	HIT	HIT	3131	experiment	RVvGV	49	1	3	40	0	HIT	HIT	2951	experiment	RVvGV	50	1	3	40	0	HIT	HIT	2401	experiment	RVvGV	51	1	3	40	0	HIT	HIT	2391	experiment	RVvGV	52	0	12	1	0	TNEG	TNEG	3201	experiment	RVvGV	53	0	18	1	0	TNEG	TNEG	5141	experiment	RVvGV	54	0	18	1	0	TNEG	TNEG	3941	experiment	RVvGV	55	0	6	40	1	FA	FA	3411	experiment	RVvGV	56	0	18	1	0	TNEG	TNEG	3471	experiment	RVvGV	57	1	6	40	0	HIT	HIT	4041	experiment	RVvGV	58	0	18	1	0	TNEG	TNEG	3231	experiment	RVvGV	59	0	6	1	0	TNEG	TNEG	3401	experiment	RVvGV	60	1	12	40	0	HIT	HIT	3671	experiment	RVvGV	61	1	6	40	0	HIT	HIT	3721	experiment	RVvGV	62	0	3	1	0	TNEG	TNEG	3511	experiment	RVvGV	63	0	6	1	0	TNEG	TNEG	3171	experiment	RVvGV	64	0	6	1	0	TNEG	TNEG	4921	experiment	RVvGV	65	0	6	1	0	TNEG	TNEG	2921	experiment	RVvGV	66	1	18	40	0	HIT	HIT	3061	experiment	RVvGV	67	0	3	1	0	TNEG	TNEG	3111	experiment	RVvGV	68	0	3	1	0	TNEG	TNEG	3111	experiment	RVvGV	69	1	6	40	0	HIT	HIT	3081	experiment	RVvGV	70	0	18	1	0	TNEG	TNEG	3141	experiment	RVvGV	71	1	3	1	1	MISS	MISS	3031	experiment	RVvGV	72	1	6	1	1	MISS	MISS	3331	experiment	RVvGV	73	0	12	1	0	TNEG	TNEG	3431	experiment	RVvGV	74	1	18	40	0	HIT	HIT	2821	experiment	RVvGV	75	1	12	40	0	HIT	HIT	3261	experiment	RVvGV	76	1	3	40	0	HIT	HIT	3031	experiment	RVvGV	77	0	12	1	0	TNEG	TNEG	3431	experiment	RVvGV	78	1	6	40	0	HIT	HIT	3721	experiment	RVvGV	79	0	3	1	0	TNEG	TNEG	3431	experiment	RVvGV	80	0	6	1	0	TNEG	TNEG	4361	experiment	RVvGV	81	1	6	40	0	HIT	HIT	3561	experiment	RVvGV	82	1	3	40	0	HIT	HIT	3111	experiment	RVvGV	83	1	6	40	0	HIT	HIT	3561	experiment	RVvGV	84	0	6	1	0	TNEG	TNEG	3481	experiment	RVvGV	85	1	18	40	0	HIT	HIT	5621	experiment	RVvGV	86	0	3	1	0	TNEG	TNEG	4401	experiment	RVvGV	87	1	18	40	0	HIT	HIT	4101	experiment	RVvGV	88	0	18	1	0	TNEG	TNEG	4171	experiment	RVvGV	89	1	12	40	0	HIT	HIT	4151	experiment	RVvGV	90	0	18	1	0	TNEG	TNEG	4661	experiment	RVvGV	91	1	12	40	0	HIT	HIT	4631	experiment	RVvGV	92	0	12	1	0	TNEG	TNEG	3431	experiment	RVvGV	93	1	12	40	0	HIT	HIT	3431	experiment	RVvGV	94	0	3	1	0	TNEG	TNEG	5271	experiment	RVvGV	95	1	12	40	0	HIT	HIT	4951	experiment	RVvGV	96	0	12	1	0	TNEG	TNEG	3191	experiment	RVvGV	97	1	6	1	1	MISS	MISS	5881	experiment	RVvGV	98	0	6	1	0	TNEG	TNEG	3811	experiment	RVvGV	99	1	6	40	0	HIT	HIT	3481	experiment	RVvGV	100	0	18	1	0	TNEG	TNEG	4101	experiment	RVvGV	101	0	6	1	0	TNEG	TNEG	3971	experiment	RVvGV	102	1	18	40	0	HIT	HIT	3371	experiment	RVvGV	103	0	3	1	0	TNEG	TNEG	3511	experiment	RVvGV	104	1	18	40	0	HIT	HIT	3301	experiment	RVvGV	105	1	3	40	0	HIT	HIT	3501	experiment	RVvGV	106	0	18	1	0	TNEG	TNEG	3541	experiment	RVvGV	107	0	3	1	0	TNEG	TNEG	4391	experiment	RVvGV	108	0	18	1	0	TNEG	TNEG	3371	experiment	RVvGV	109	1	12	40	0	HIT	HIT	3031	experiment	RVvGV	110	1	12	40	0	HIT	HIT	3511	experiment	RVvGV	111	1	6	40	0	HIT	HIT	3961	experiment	RVvGV	112	0	12	1	0	TNEG	TNEG	3511	experiment	RVvGV	113	1	12	40	0	HIT	HIT	3751	experiment	RVvGV	114	1	6	40	0	HIT	HIT	3401	experiment	RVvGV	115	1	6	40	0	HIT	HIT	3251	experiment	RVvGV	116	0	18	1	0	TNEG	TNEG	4181	experiment	RVvGV	117	1	18	40	0	HIT	HIT	4501	experiment	RVvGV	118	1	12	1	1	MISS	MISS	4711	experiment	RVvGV	119	1	12	40	0	HIT	HIT	3031	experiment	RVvGV	120	0	12	1	0	TNEG	TNEG	3431	experiment	RVvGV	121	0	6	1	0	TNEG	TNEG	3091	experiment	RVvGV	122	0	18	1	0	TNEG	TNEG	3131	experiment	RVvGV	123	0	6	1	0	TNEG	TNEG	3321	experiment	RVvGV	124	1	6	40	0	HIT	HIT	3321	experiment	RVvGV	125	1	6	40	0	HIT	HIT	2921	experiment	RVvGV	126	0	18	1	0	TNEG	TNEG	3941	experiment	RVvGV	127	0	12	1	0	TNEG	TNEG	3271	experiment	RVvGV	128	0	3	1	0	TNEG	TNEG	3831	experiment	RVvGV	129	0	18	1	0	TNEG	TNEG	4501	experiment	RVvGV	130	1	6	40	0	HIT	HIT	6281	experiment	RVvGV	131	0	3	1	0	TNEG	TNEG	5511	experiment	RVvGV	132	1	6	40	0	HIT	HIT	4201	experiment	RVvGV	133	1	6	40	0	HIT	HIT	3481	experiment	RVvGV	134	1	12	40	0	HIT	HIT	3751	experiment	RVvGV	135	0	3	1	0	TNEG	TNEG	3261	experiment	RVvGV	136	0	18	1	0	TNEG	TNEG	4901	experiment	RVvGV	137	0	18	1	0	TNEG	TNEG	3541	experiment	RVvGV	138	0	6	1	0	TNEG	TNEG	3961	experiment	RVvGV	139	1	3	40	0	HIT	HIT	3341	experiment	RVvGV	140	1	6	40	0	HIT	HIT	3571	experiment	RVvGV	141	1	6	1	1	MISS	MISS	3231	experiment	RVvGV	142	0	3	1	0	TNEG	TNEG	3441	experiment	RVvGV	143	0	12	1	0	TNEG	TNEG	3271	experiment	RVvGV	144	0	18	1	0	TNEG	TNEG	3771	experiment	RVvGV	145	1	6	40	0	HIT	HIT	3331	experiment	RVvGV	146	1	18	40	0	HIT	HIT	3611	experiment	RVvGV	147	0	3	1	0	TNEG	TNEG	4151	experiment	RVvGV	148	1	6	40	0	HIT	HIT	7001	experiment	RVvGV	149	1	12	40	0	HIT	HIT	5741	experiment	RVvGV	150	1	3	40	0	HIT	HIT	6141	experiment	RVvGV	151	1	18	40	0	HIT	HIT	2741	experiment	RVvGV	152	0	12	1	0	TNEG	TNEG	3351	experiment	RVvGV	153	1	3	40	0	HIT	HIT	3591	experiment	RVvGV	154	1	3	40	0	HIT	HIT	3831	experiment	RVvGV	155	0	6	1	0	TNEG	TNEG	3731	experiment	RVvGV	156	1	12	40	0	HIT	HIT	3991	experiment	RVvGV	157	0	3	1	0	TNEG	TNEG	6471	experiment	RVvGV	158	0	3	1	0	TNEG	TNEG	7181	experiment	RVvGV	159	0	12	1	0	TNEG	TNEG	8791	experiment	RVvGV	160	1	6	40	0	HIT	HIT	3491	experiment	RVvGV	161	1	18	40	0	HIT	HIT	3781	experiment	RVvGV	162	1	6	40	0	HIT	HIT	3091	experiment	RVvGV	163	0	18	1	0	TNEG	TNEG	3541	experiment	RVvGV	164	1	18	40	0	HIT	HIT	3301	experiment	RVvGV	165	1	6	1	1	MISS	MISS	3331	experiment	RVvGV	166	1	3	40	0	HIT	HIT	3181	experiment	RVvGV	167	0	3	1	0	TNEG	TNEG	4231	experiment	RVvGV	168	1	3	40	0	HIT	HIT	3751	experiment	RVvGV	169	1	3	40	0	HIT	HIT	6471	experiment	RVvGV	170	0	3	1	0	TNEG	TNEG	4711	experiment	RVvGV	171	1	12	40	0	HIT	HIT	4951	experiment	RVvGV	172	0	12	1	0	TNEG	TNEG	3831	experiment	RVvGV	173	1	12	40	0	HIT	HIT	3901	experiment	RVvGV	174	1	18	40	0	HIT	HIT	5301	experiment	RVvGV	175	0	18	1	0	TNEG	TNEG	4981	experiment	RVvGV	176	0	3	1	0	TNEG	TNEG	6871	experiment	RVvGV	177	0	18	1	0	TNEG	TNEG	4261	experiment	RVvGV	178	1	12	40	0	HIT	HIT	4231	experiment	RVvGV	179	0	6	1	0	TNEG	TNEG	4521	experiment	RVvGV	180	0	3	1	0	TNEG	TNEG	6391	experiment	RVvGV	181	1	18	40	0	HIT	HIT	10811	experiment	RVvGV	182	1	12	40	0	HIT	HIT	4071	experiment	RVvGV	184	0	12	1	0	TNEG	TNEG	3651	experiment	RVvGV	185	0	12	1	0	TNEG	TNEG	3941	experiment	RVvGV	186	0	6	40	1	FA	FA	3671	experiment	RVvGV	187	1	12	40	0	HIT	HIT	2991	experiment	RVvGV	188	0	18	1	0	TNEG	TNEG	3271	experiment	RVvGV	189	1	18	40	0	HIT	HIT	3101	experiment	RVvGV	191	0	18	1	0	TNEG	TNEG	3561	experiment	RVvGV	192	0	6	1	0	TNEG	TNEG	3261	experiment	RVvGV	193	1	3	40	0	HIT	HIT	3441	experiment	RVvGV	194	1	3	40	0	HIT	HIT	3201	experiment	RVvGV	195	0	6	1	0	TNEG	TNEG	3271	experiment	RVvGV	196	0	12	1	0	TNEG	TNEG	3541	experiment	RVvGV	197	0	3	1	0	TNEG	TNEG	2881	experiment	RVvGV	198	0	3	1	0	TNEG	TNEG	3131	experiment	RVvGV	199	1	18	40	0	HIT	HIT	3491	experiment	RVvGV	200	1	12	40	0	HIT	HIT	3071	experiment	RVvGV	201	0	12	1	0	TNEG	TNEG	3461	experiment	RVvGV	202	0	3	1	0	TNEG	TNEG	3441	experiment	RVvGV	203	0	6	1	0	TNEG	TNEG	3341	experiment	RVvGV	204	1	12	40	0	HIT	HIT	4251	experiment	RVvGV	205	1	6	40	0	HIT	HIT	6541	experiment	RVvGV	206	1	12	40	0	HIT	HIT	7381	experiment	RVvGV	207	1	6	40	0	HIT	HIT	5171	experiment	RVvGV	208	0	12	1	0	TNEG	TNEG	3061	experiment	RVvGV	209	1	6	40	0	HIT	HIT	3491	experiment	RVvGV	210	0	3	1	0	TNEG	TNEG	2801	experiment	RVvGV	211	0	6	1	0	TNEG	TNEG	3101	experiment	RVvGV	212	0	6	1	0	TNEG	TNEG	3421	experiment	RVvGV	213	0	6	1	0	TNEG	TNEG	2541	experiment	RVvGV	214	0	18	1	0	TNEG	TNEG	3481	experiment	RVvGV	215	1	6	40	0	HIT	HIT	3491	experiment	RVvGV	216	0	18	1	0	TNEG	TNEG	2831	experiment	RVvGV	217	0	18	1	0	TNEG	TNEG	3161	experiment	RVvGV	218	0	3	1	0	TNEG	TNEG	2481	experiment	RVvGV	219	0	12	1	0	TNEG	TNEG	2961	experiment	RVvGV	220	0	12	1	0	TNEG	TNEG	2881	experiment	RVvGV	221	0	12	1	0	TNEG	TNEG	2891	experiment	RVvGV	222	0	3	1	0	TNEG	TNEG	3351	experiment	RVvGV	223	0	12	1	0	TNEG	TNEG	2161	experiment	RVvGV	224	0	3	1	0	TNEG	TNEG	3751	experiment	RVvGV	225	1	6	40	0	HIT	HIT	3971	experiment	RVvGV	226	1	6	40	0	HIT	HIT	4451	experiment	RVvGV	227	1	3	40	0	HIT	HIT	3271	experiment	RVvGV	228	0	6	1	0	TNEG	TNEG	3571	experiment	RVvGV	229	0	12	1	0	TNEG	TNEG	2641	experiment	RVvGV	230	1	18	40	0	HIT	HIT	3781	experiment	RVvGV	231	1	6	40	0	HIT	HIT	3331	experiment	RVvGV	232	0	18	1	0	TNEG	TNEG	3391	experiment	RVvGV	233	0	12	1	0	TNEG	TNEG	2551	experiment	RVvGV	234	0	18	1	0	TNEG	TNEG	3061	experiment	RVvGV	235	1	3	40	0	HIT	HIT	5281	experiment	RVvGV	236	0	3	1	0	TNEG	TNEG	3111	experiment	RVvGV	237	0	12	1	0	TNEG	TNEG	2791	experiment	RVvGV	238	1	12	40	0	HIT	HIT	3431	experiment	RVvGV	239	1	3	40	0	HIT	HIT	3101	experiment	RVvGV	240	1	3	40	0	HIT	HIT	3741	experiment	RVvGV	241	0	3	1	0	TNEG	TNEG	9031	experiment	RVvGV	242	1	3	40	0	HIT	HIT	7751	experiment	RVvGV	243	1	3	40	0	HIT	HIT	6801	experiment	RVvGV	244	0	6	1	0	TNEG	TNEG	5321	experiment	RVvGV	245	1	6	40	0	HIT	HIT	5721	experiment	RVvGV	246	1	3	40	0	HIT	HIT	4071	experiment	RVvGV	247	0	6	1	0	TNEG	TNEG	6761	experiment	RVvGV	248	1	18	40	0	HIT	HIT	8341	experiment	RVvGV	249	0	18	1	0	TNEG	TNEG	3451	experiment	RVvGV	250	0	12	1	0	TNEG	TNEG	3991	experiment	RVvGV	251	1	3	40	0	HIT	HIT	2871	experiment	RVvGV	252	1	18	40	0	HIT	HIT	3141	experiment	RVvGV	253	0	18	1	0	TNEG	TNEG	7861	experiment	RVvGV	254	0	3	1	0	TNEG	TNEG	4391	experiment	RVvGV	255	0	6	1	0	TNEG	TNEG	6611	experiment	RVvGV	256	1	3	40	0	HIT	HIT	3991	experiment	RVvGV	257	0	3	1	0	TNEG	TNEG	7921	experiment	RVvGV	258	0	12	1	0	TNEG	TNEG	7261	experiment	RVvGV	259	1	12	40	0	HIT	HIT	4461	experiment	RVvGV	260	0	12	1	0	TNEG	TNEG	8871	experiment	RVvGV	261	1	6	40	0	HIT	HIT	4201	experiment	RVvGV	262	0	18	1	0	TNEG	TNEG	3141	experiment	RVvGV	263	1	18	40	0	HIT	HIT	3221	experiment	RVvGV	264	1	12	40	0	HIT	HIT	4241	experiment	RVvGV	265	0	12	1	0	TNEG	TNEG	2551	experiment	RVvGV	266	0	12	1	0	TNEG	TNEG	3591	experiment	RVvGV	267	1	6	40	0	HIT	HIT	2931	experiment	RVvGV	268	0	18	1	0	TNEG	TNEG	3621	experiment	RVvGV	269	1	6	1	1	MISS	MISS	3241	experiment	RVvGV	270	1	12	40	0	HIT	HIT	3501	experiment	RVvGV	271	1	3	40	0	HIT	HIT	3911	experiment	RVvGV	272	1	3	40	0	HIT	HIT	2711	experiment	RVvGV	273	1	12	40	0	HIT	HIT	2951	experiment	RVvGV	274	0	6	1	0	TNEG	TNEG	6591	experiment	RVvGV	275	0	18	1	0	TNEG	TNEG	4021	experiment	RVvGV	276	1	6	40	0	HIT	HIT	5731	experiment	RVvGV	277	0	6	40	1	FA	FA	5231	experiment	RVvGV	278	1	18	40	0	HIT	HIT	2901	experiment	RVvGV	279	1	3	40	0	HIT	HIT	9501	experiment	RVvGV	280	0	3	1	0	TNEG	TNEG	3511	experiment	RVvGV	281	0	6	1	0	TNEG	TNEG	3011	experiment	RVvGV	282	1	3	40	0	HIT	HIT	3111	experiment	RVvGV	283	1	12	40	0	HIT	HIT	2871	experiment	RVvGV	284	1	12	40	0	HIT	HIT	3341	experiment	RVvGV	285	1	6	1	1	MISS	MISS	2841	experiment	RVvGV	286	0	6	1	0	TNEG	TNEG	3241	experiment	RVvGV	287	0	3	40	1	FA	FA	2871	experiment	RVvGV	288	0	18	1	0	TNEG	TNEG	2981	experiment	RVvGV	289	1	3	40	0	HIT	HIT	3741	experiment	RVvGV	290	0	6	1	0	TNEG	TNEG	2931	experiment	RVvGV	291	0	18	1	0	TNEG	TNEG	2901	experiment	RVvGV	292	1	3	40	0	HIT	HIT	4151	experiment	RVvGV	293	0	3	1	0	TNEG	TNEG	3271	experiment	RVvGV	294	0	12	1	0	TNEG	TNEG	3271	experiment	RVvGV	295	0	6	1	0	TNEG	TNEG	3481	experiment	RVvGV	296	1	6	40	0	HIT	HIT	4921	experiment	RVvGV	297	0	18	1	0	TNEG	TNEG	4331	experiment	RVvGV	298	1	12	40	0	HIT	HIT	5101	experiment	RVvGV	299	1	18	40	0	HIT	HIT	4101	experiment	RVvGV	300	0	3	1	0	TNEG	TNEG	3341	experiment	RVvGV	301	1	3	40	0	HIT	HIT	3991	experiment	RVvGV	302	1	18	40	0	HIT	HIT	4501	experiment	RVvGV	303	0	18	1	0	TNEG	TNEG	3141	experiment	RVvGV	304	1	6	40	0	HIT	HIT	4601	experiment	RVvGV	305	0	6	1	0	TNEG	TNEG	4201	experiment	RVvGV	306	0	18	1	0	TNEG	TNEG	3221	experiment	RVvGV	307	0	12	1	0	TNEG	TNEG	3351	experiment	RVvGV	308	0	12	1	0	TNEG	TNEG	3991	experiment	RVvGV	309	0	6	1	0	TNEG	TNEG	5811	experiment	RVvGV	310	0	18	1	0	TNEG	TNEG	3941	experiment	RVvGV	311	0	3	1	0	TNEG	TNEG	3741	experiment	RVvGV	312	0	12	1	0	TNEG	TNEG	3191	experiment	RVvGV	313	1	12	40	0	HIT	HIT	3501	experiment	RVvGV	314	0	12	1	0	TNEG	TNEG	3501	experiment	RVvGV	315	0	6	1	0	TNEG	TNEG	2761	experiment	RVvGV	316	0	6	1	0	TNEG	TNEG	2201	experiment	RVvGV	317	0	3	1	0	TNEG	TNEG	2391	experiment	RVvGV	318	1	18	40	0	HIT	HIT	5301	experiment	RVvGV	319	0	3	1	0	TNEG	TNEG	7431	experiment	RVvGV	320	0	12	1	0	TNEG	TNEG	4721	experiment	RVvGV	321	1	3	1	1	MISS	MISS	23751	experiment	RVvGV	322	0	12	1	0	TNEG	TNEG	3671	experiment	RVvGV	323	0	6	1	0	TNEG	TNEG	2981	experiment	RVvGV	324	1	3	40	0	HIT	HIT	3511	experiment	RVvGV	325	1	6	1	1	MISS	MISS	2611	experiment	RVvGV	326	0	12	1	0	TNEG	TNEG	3111	experiment	RVvGV	327	1	18	40	0	HIT	HIT	3131	experiment	RVvGV	328	1	18	40	0	HIT	HIT	3861	experiment	RVvGV	329	1	18	40	0	HIT	HIT	3211	experiment	RVvGV	330	0	6	1	0	TNEG	TNEG	3481	experiment	RVvGV	331	1	6	40	0	HIT	HIT	3321	experiment	RVvGV	332	0	6	1	0	TNEG	TNEG	4051	experiment	RVvGV	333	0	18	1	0	TNEG	TNEG	3061	experiment	RVvGV	334	1	3	40	0	HIT	HIT	3661	experiment	RVvGV	335	1	18	40	0	HIT	HIT	3541	experiment	RVvGV	336	1	18	40	0	HIT	HIT	3211	experiment	RVvGV	337	1	6	40	0	HIT	HIT	3971	experiment	RVvGV	338	1	6	40	0	HIT	HIT	5241	experiment	RVvGV	339	0	6	1	0	TNEG	TNEG	3401	experiment	RVvGV	340	0	18	1	0	TNEG	TNEG	3781	experiment	RVvGV	341	0	18	1	0	TNEG	TNEG	2581	experiment	RVvGV	342	1	6	40	0	HIT	HIT	3411	experiment	RVvGV	343	0	3	1	0	TNEG	TNEG	4551	experiment	RVvGV	344	1	3	40	0	HIT	HIT	3281	experiment	RVvGV	345	1	12	40	0	HIT	HIT	6071	experiment	RVvGV	346	1	6	40	0	HIT	HIT	3651	experiment	RVvGV	347	1	18	40	0	HIT	HIT	3381	experiment	RVvGV	348	0	18	1	0	TNEG	TNEG	3621	experiment	RVvGV	349	1	3	40	0	HIT	HIT	3751	experiment	RVvGV	350	1	12	40	0	HIT	HIT	2711	experiment	RVvGV	351	1	18	40	0	HIT	HIT	2661	experiment	RVvGV	352	1	18	40	0	HIT	HIT	2661	experiment	RVvGV	353	0	18	1	0	TNEG	TNEG	3381	experiment	RVvGV	354	1	3	40	0	HIT	HIT	4311	experiment	RVvGV	355	0	6	1	0	TNEG	TNEG	3471	experiment	RVvGV	356	1	12	40	0	HIT	HIT	3351	experiment	RVvGV	357	0	3	1	0	TNEG	TNEG	3991	experiment	RVvGV	358	1	6	40	0	HIT	HIT	4361	experiment	RVvGV	359	0	6	1	0	TNEG	TNEG	4851	experiment	RVvGV	360	1	3	40	0	HIT	HIT	3271	experiment	RVvGV	361	1	12	40	0	HIT	HIT	2951	experiment	RVvGV	362	0	18	1	0	TNEG	TNEG	3381	experiment	RVvGV	363	1	18	40	0	HIT	HIT	3781	experiment	RVvGV	364	0	12	1	0	TNEG	TNEG	3911	experiment	RVvGV	365	0	6	1	0	TNEG	TNEG	3321	experiment	RVvGV	366	1	18	1	1	MISS	MISS	3771	experiment	RVvGV	367	1	6	40	0	HIT	HIT	3071	experiment	RVvGV	368	0	12	1	0	TNEG	TNEG	2951	experiment	RVvGV	369	0	6	1	0	TNEG	TNEG	4201	experiment	RVvGV	370	1	12	40	0	HIT	HIT	3431	experiment	RVvGV	371	0	6	1	0	TNEG	TNEG	4051	experiment	RVvGV	372	0	3	1	0	TNEG	TNEG	4071	experiment	RVvGV	373	0	3	1	0	TNEG	TNEG	7991	experiment	RVvGV	374	0	6	1	0	TNEG	TNEG	5891	experiment	RVvGV	375	1	3	40	0	HIT	HIT	3271	experiment	RVvGV	376	0	3	1	0	TNEG	TNEG	3201	experiment	RVvGV	377	1	18	1	1	MISS	MISS	3141	experiment	RVvGV	378	1	18	40	0	HIT	HIT	2821	experiment	RVvGV	379	1	18	40	0	HIT	HIT	3141	experiment	RVvGV	380	1	18	40	0	HIT	HIT	2901	experiment	RVvGV	381	1	18	40	0	HIT	HIT	2981	experiment	RVvGV	382	0	3	1	0	TNEG	TNEG	3671	experiment	RVvGV	383	0	3	1	0	TNEG	TNEG	3661	experiment	RVvGV	384	1	12	40	0	HIT	HIT	3271	experiment	RVvGV	385	1	12	40	0	HIT	HIT	3671	experiment	RVvGV	386	0	6	1	0	TNEG	TNEG	3961	experiment	RVvGV	387	0	6	1	0	TNEG	TNEG	3571	experiment	RVvGV	388	1	6	40	0	HIT	HIT	3561	experiment	RVvGV	389	0	18	1	0	TNEG	TNEG	3221	experiment	RVvGV	390	0	3	1	0	TNEG	TNEG	3281	experiment	RVvGV	391	1	6	40	0	HIT	HIT	4261	experiment	RVvGV	392	0	12	1	0	TNEG	TNEG	3521	experiment	RVvGV	393	1	12	40	0	HIT	HIT	4941	experiment	RVvGV	394	1	6	40	0	HIT	HIT	6121	experiment	RVvGV	395	1	18	40	0	HIT	HIT	11701	experiment	RVvGV	396	1	12	40	0	HIT	HIT	3271	experiment	RVvGV	397	1	18	40	0	HIT	HIT	2741	experiment	RVvGV	398	0	3	1	0	TNEG	TNEG	3431	experiment	RVvGV	399	1	12	40	0	HIT	HIT	3751	experiment	RVvGV	400	1	12	40	0	HIT	HIT	3271	practice	RVvGV	1	0	12	1	0	TNEG	TNEG	29541	practice	RVvGV	3	0	6	1	0	TNEG	TNEG	6161	practice	RVvGV	4	1	12	40	0	HIT	HIT	3521	practice	RVvGV	5	1	6	40	0	HIT	HIT	2861	practice	RVvGV	6	1	18	40	0	HIT	HIT	3501	practice	RVvGV	7	0	18	1	0	TNEG	TNEG	2951	practice	RVvGV	8	1	12	40	0	HIT	HIT	3521	practice	RVvGV	9	1	18	40	0	HIT	HIT	2851	practice	RVvGV	10	0	18	1	0	TNEG	TNEG	2771	experiment	RVvGV	1	1	3	1	1	MISS	MISS	3181	experiment	RVvGV	2	1	3	40	0	HIT	HIT	3361	experiment	RVvGV	3	1	3	40	0	HIT	HIT	2401	experiment	RVvGV	4	1	6	40	0	HIT	HIT	3251	experiment	RVvGV	5	0	3	1	0	TNEG	TNEG	3371	experiment	RVvGV	6	1	3	40	0	HIT	HIT	2561	experiment	RVvGV	7	0	18	1	0	TNEG	TNEG	3181	experiment	RVvGV	8	0	12	1	0	TNEG	TNEG	3381	experiment	RVvGV	9	1	18	40	0	HIT	HIT	3251	experiment	RVvGV	10	1	12	40	0	HIT	HIT	2741	experiment	RVvGV	11	0	12	1	0	TNEG	TNEG	3141	experiment	RVvGV	12	0	6	1	0	TNEG	TNEG	4301	experiment	RVvGV	13	1	3	40	0	HIT	HIT	3041	experiment	RVvGV	14	0	12	1	0	TNEG	TNEG	2871	experiment	RVvGV	15	0	3	1	0	TNEG	TNEG	2711	experiment	RVvGV	16	1	12	40	0	HIT	HIT	2891	experiment	RVvGV	17	1	6	40	0	HIT	HIT	2861	experiment	RVvGV	18	1	3	40	0	HIT	HIT	2481	experiment	RVvGV	19	0	6	40	1	FA	FA	2291	experiment	RVvGV	20	1	18	40	0	HIT	HIT	2921	experiment	RVvGV	21	0	6	1	0	TNEG	TNEG	3581	experiment	RVvGV	22	0	6	1	0	TNEG	TNEG	3651	experiment	RVvGV	23	1	18	40	0	HIT	HIT	3721	experiment	RVvGV	24	0	3	1	0	TNEG	TNEG	3191	experiment	RVvGV	25	0	12	1	0	TNEG	TNEG	3281	experiment	RVvGV	26	0	12	1	0	TNEG	TNEG	3291	experiment	RVvGV	27	1	3	40	0	HIT	HIT	3271	experiment	RVvGV	28	0	6	1	0	TNEG	TNEG	3171	experiment	RVvGV	29	1	12	40	0	HIT	HIT	3361	experiment	RVvGV	30	0	3	1	0	TNEG	TNEG	3601	experiment	RVvGV	31	0	3	1	0	TNEG	TNEG	3841	experiment	RVvGV	32	1	3	40	0	HIT	HIT	3201	experiment	RVvGV	33	1	3	40	0	HIT	HIT	3671	experiment	RVvGV	34	1	12	40	0	HIT	HIT	3121	experiment	RVvGV	35	1	12	40	0	HIT	HIT	3441	experiment	RVvGV	36	1	12	40	0	HIT	HIT	5521	experiment	RVvGV	37	1	12	40	0	HIT	HIT	3261	experiment	RVvGV	38	0	6	1	0	TNEG	TNEG	4051	experiment	RVvGV	39	1	18	40	0	HIT	HIT	4501	experiment	RVvGV	40	1	12	40	0	HIT	HIT	2711	experiment	RVvGV	42	1	6	40	0	HIT	HIT	3051	experiment	RVvGV	43	1	3	40	0	HIT	HIT	2551	experiment	RVvGV	44	1	3	40	0	HIT	HIT	2641	experiment	RVvGV	45	1	12	40	0	HIT	HIT	4501	experiment	RVvGV	46	0	18	1	0	TNEG	TNEG	3421	experiment	RVvGV	47	1	3	40	0	HIT	HIT	2881	experiment	RVvGV	48	0	6	1	0	TNEG	TNEG	5981	experiment	RVvGV	49	0	18	1	0	TNEG	TNEG	4221	experiment	RVvGV	50	1	6	40	0	HIT	HIT	4211	experiment	RVvGV	51	1	6	40	0	HIT	HIT	3261	experiment	RVvGV	52	1	18	40	0	HIT	HIT	2291	experiment	RVvGV	53	0	3	1	0	TNEG	TNEG	3201	experiment	RVvGV	54	1	18	40	0	HIT	HIT	2521	experiment	RVvGV	55	0	3	1	0	TNEG	TNEG	2961	experiment	RVvGV	56	1	3	40	0	HIT	HIT	2961	experiment	RVvGV	57	1	6	40	0	HIT	HIT	2621	experiment	RVvGV	58	0	3	1	0	TNEG	TNEG	3121	experiment	RVvGV	59	0	3	1	0	TNEG	TNEG	3201	experiment	RVvGV	60	0	3	1	0	TNEG	TNEG	3601	experiment	RVvGV	61	0	6	1	0	TNEG	TNEG	3251	experiment	RVvGV	62	1	6	40	0	HIT	HIT	2701	experiment	RVvGV	63	1	6	40	0	HIT	HIT	2371	experiment	RVvGV	64	1	18	40	0	HIT	HIT	2841	experiment	RVvGV	65	1	3	40	0	HIT	HIT	2001	experiment	RVvGV	66	0	6	1	0	TNEG	TNEG	3491	experiment	RVvGV	67	0	12	1	0	TNEG	TNEG	2881	experiment	RVvGV	68	0	12	1	0	TNEG	TNEG	3441	experiment	RVvGV	69	1	12	40	0	HIT	HIT	2241	experiment	RVvGV	70	1	12	40	0	HIT	HIT	4631	experiment	RVvGV	71	1	3	40	0	HIT	HIT	3191	experiment	RVvGV	72	1	6	40	0	HIT	HIT	2931	experiment	RVvGV	73	0	3	1	0	TNEG	TNEG	3511	experiment	RVvGV	74	0	6	1	0	TNEG	TNEG	4201	experiment	RVvGV	75	0	6	1	0	TNEG	TNEG	2851	experiment	RVvGV	76	1	12	40	0	HIT	HIT	2881	experiment	RVvGV	77	0	6	1	0	TNEG	TNEG	2771	experiment	RVvGV	78	0	18	1	0	TNEG	TNEG	2901	experiment	RVvGV	79	0	18	1	0	TNEG	TNEG	2421	experiment	RVvGV	80	0	12	1	0	TNEG	TNEG	2801	experiment	RVvGV	81	1	12	40	0	HIT	HIT	3351	experiment	RVvGV	82	0	18	1	0	TNEG	TNEG	2981	experiment	RVvGV	83	1	12	40	0	HIT	HIT	4791	experiment	RVvGV	84	0	18	1	0	TNEG	TNEG	12501	experiment	RVvGV	85	1	3	40	0	HIT	HIT	4711	experiment	RVvGV	86	1	12	40	0	HIT	HIT	2951	experiment	RVvGV	87	1	12	40	0	HIT	HIT	3511	experiment	RVvGV	88	0	6	1	0	TNEG	TNEG	3081	experiment	RVvGV	89	0	6	1	0	TNEG	TNEG	2921	experiment	RVvGV	90	1	6	40	0	HIT	HIT	2601	experiment	RVvGV	91	1	12	40	0	HIT	HIT	3591	experiment	RVvGV	92	1	12	1	1	MISS	MISS	2871	experiment	RVvGV	93	1	3	40	0	HIT	HIT	5661	experiment	RVvGV	94	1	3	40	0	HIT	HIT	5671	experiment	RVvGV	95	1	3	40	0	HIT	HIT	2391	experiment	RVvGV	96	0	6	1	0	TNEG	TNEG	3571	experiment	RVvGV	97	0	3	1	0	TNEG	TNEG	5671	experiment	RVvGV	98	1	18	40	0	HIT	HIT	2891	experiment	RVvGV	99	0	12	1	0	TNEG	TNEG	3101	experiment	RVvGV	100	0	18	1	0	TNEG	TNEG	3131	experiment	RVvGV	101	0	18	1	0	TNEG	TNEG	3211	experiment	RVvGV	102	0	3	1	0	TNEG	TNEG	2791	experiment	RVvGV	103	0	18	1	0	TNEG	TNEG	2501	experiment	RVvGV	104	0	12	1	0	TNEG	TNEG	2951	experiment	RVvGV	105	0	12	1	0	TNEG	TNEG	2551	experiment	RVvGV	106	0	6	1	0	TNEG	TNEG	2601	experiment	RVvGV	107	1	6	1	1	MISS	MISS	3001	experiment	RVvGV	108	1	3	40	0	HIT	HIT	3111	experiment	RVvGV	109	0	3	1	0	TNEG	TNEG	3261	experiment	RVvGV	110	1	12	40	0	HIT	HIT	3511	experiment	RVvGV	111	0	12	1	0	TNEG	TNEG	3021	experiment	RVvGV	112	0	6	1	0	TNEG	TNEG	3321	experiment	RVvGV	113	1	12	40	0	HIT	HIT	3421	experiment	RVvGV	114	0	12	1	0	TNEG	TNEG	3671	experiment	RVvGV	115	1	18	40	0	HIT	HIT	3531	experiment	RVvGV	116	0	18	1	0	TNEG	TNEG	3061	experiment	RVvGV	117	0	3	1	0	TNEG	TNEG	3341	experiment	RVvGV	118	1	18	40	0	HIT	HIT	3931	experiment	RVvGV	119	0	6	1	0	TNEG	TNEG	3561	experiment	RVvGV	120	0	3	1	0	TNEG	TNEG	3021	experiment	RVvGV	121	1	12	40	0	HIT	HIT	2541	experiment	RVvGV	122	0	18	1	0	TNEG	TNEG	7691	experiment	RVvGV	123	1	6	40	0	HIT	HIT	2761	experiment	RVvGV	124	0	12	1	0	TNEG	TNEG	3111	experiment	RVvGV	125	0	12	1	0	TNEG	TNEG	2871	experiment	RVvGV	126	0	12	1	0	TNEG	TNEG	2781	experiment	RVvGV	127	1	3	40	0	HIT	HIT	3501	experiment	RVvGV	128	0	18	1	0	TNEG	TNEG	3541	experiment	RVvGV	129	1	12	40	0	HIT	HIT	3811	experiment	RVvGV	130	1	6	1	1	MISS	MISS	3551	experiment	RVvGV	131	0	18	1	0	TNEG	TNEG	2661	experiment	RVvGV	132	0	18	1	0	TNEG	TNEG	2811	experiment	RVvGV	133	1	18	40	0	HIT	HIT	2821	experiment	RVvGV	134	1	6	40	0	HIT	HIT	2761	experiment	RVvGV	135	0	6	1	0	TNEG	TNEG	3401	experiment	RVvGV	136	0	6	1	0	TNEG	TNEG	3001	experiment	RVvGV	137	1	18	40	0	HIT	HIT	3131	experiment	RVvGV	138	0	6	1	0	TNEG	TNEG	3241	experiment	RVvGV	139	0	6	1	0	TNEG	TNEG	2841	experiment	RVvGV	140	0	6	1	0	TNEG	TNEG	3321	experiment	RVvGV	141	0	3	1	0	TNEG	TNEG	2711	experiment	RVvGV	142	1	12	40	0	HIT	HIT	4221	experiment	RVvGV	143	1	12	40	0	HIT	HIT	3271	experiment	RVvGV	144	1	12	40	0	HIT	HIT	3261	experiment	RVvGV	145	1	6	1	1	MISS	MISS	3001	experiment	RVvGV	146	1	18	40	0	HIT	HIT	3131	experiment	RVvGV	147	1	6	40	0	HIT	HIT	3161	experiment	RVvGV	148	1	6	40	0	HIT	HIT	3001	experiment	RVvGV	149	1	6	40	0	HIT	HIT	2851	experiment	RVvGV	150	1	12	40	0	HIT	HIT	3011	experiment	RVvGV	151	1	12	40	0	HIT	HIT	2301	experiment	RVvGV	152	0	6	1	0	TNEG	TNEG	3481	experiment	RVvGV	153	0	3	1	0	TNEG	TNEG	3031	experiment	RVvGV	154	1	18	40	0	HIT	HIT	3051	experiment	RVvGV	155	0	18	1	0	TNEG	TNEG	3371	experiment	RVvGV	156	1	3	40	0	HIT	HIT	2691	experiment	RVvGV	157	0	3	1	0	TNEG	TNEG	3591	experiment	RVvGV	158	1	18	40	0	HIT	HIT	3701	experiment	RVvGV	159	0	12	1	0	TNEG	TNEG	2941	experiment	RVvGV	160	1	12	40	0	HIT	HIT	2861	experiment	RVvGV	161	0	18	1	0	TNEG	TNEG	3141	experiment	RVvGV	162	1	18	40	0	HIT	HIT	2811	experiment	RVvGV	163	1	3	40	0	HIT	HIT	3661	experiment	RVvGV	164	0	6	1	0	TNEG	TNEG	3241	experiment	RVvGV	165	1	3	40	0	HIT	HIT	3181	experiment	RVvGV	166	0	6	1	0	TNEG	TNEG	3161	experiment	RVvGV	167	1	3	40	0	HIT	HIT	2951	experiment	RVvGV	168	1	18	40	0	HIT	HIT	2731	experiment	RVvGV	169	0	18	1	0	TNEG	TNEG	3301	experiment	RVvGV	170	0	18	1	0	TNEG	TNEG	2971	experiment	RVvGV	171	1	6	40	0	HIT	HIT	4841	experiment	RVvGV	172	0	3	1	0	TNEG	TNEG	3351	experiment	RVvGV	173	1	3	40	0	HIT	HIT	3501	experiment	RVvGV	174	1	3	40	0	HIT	HIT	3261	experiment	RVvGV	175	1	6	40	0	HIT	HIT	2761	experiment	RVvGV	176	1	3	40	0	HIT	HIT	2381	experiment	RVvGV	177	1	12	40	0	HIT	HIT	3021	experiment	RVvGV	178	1	18	40	0	HIT	HIT	2811	experiment	RVvGV	179	1	3	40	0	HIT	HIT	3261	experiment	RVvGV	180	0	6	1	0	TNEG	TNEG	3561	experiment	RVvGV	181	1	3	40	0	HIT	HIT	3091	experiment	RVvGV	182	0	6	1	0	TNEG	TNEG	3801	experiment	RVvGV	183	1	12	40	0	HIT	HIT	4071	experiment	RVvGV	184	0	18	1	0	TNEG	TNEG	3291	experiment	RVvGV	185	1	18	40	0	HIT	HIT	2981	experiment	RVvGV	186	1	6	40	0	HIT	HIT	4681	experiment	RVvGV	187	0	18	1	0	TNEG	TNEG	3211	experiment	RVvGV	188	0	3	1	0	TNEG	TNEG	3581	experiment	RVvGV	189	1	3	40	0	HIT	HIT	2941	experiment	RVvGV	190	0	6	1	0	TNEG	TNEG	3401	experiment	RVvGV	191	0	18	1	0	TNEG	TNEG	3451	experiment	RVvGV	192	1	3	40	0	HIT	HIT	3501	experiment	RVvGV	193	0	18	1	0	TNEG	TNEG	3541	experiment	RVvGV	194	0	18	1	0	TNEG	TNEG	3381	experiment	RVvGV	195	1	3	40	0	HIT	HIT	5581	experiment	RVvGV	196	0	3	1	0	TNEG	TNEG	4461	experiment	RVvGV	197	1	6	40	0	HIT	HIT	4121	experiment	RVvGV	198	1	12	40	0	HIT	HIT	3591	experiment	RVvGV	199	0	12	1	0	TNEG	TNEG	3271	experiment	RVvGV	200	1	18	40	0	HIT	HIT	3211	experiment	RVvGV	201	0	6	1	0	TNEG	TNEG	3801	experiment	RVvGV	202	0	3	1	0	TNEG	TNEG	3581	experiment	RVvGV	203	1	12	40	0	HIT	HIT	3911	experiment	RVvGV	204	0	18	1	0	TNEG	TNEG	3441	experiment	RVvGV	205	1	3	40	0	HIT	HIT	4551	experiment	RVvGV	206	0	18	1	0	TNEG	TNEG	3541	experiment	RVvGV	207	1	6	40	0	HIT	HIT	3481	experiment	RVvGV	208	1	6	40	0	HIT	HIT	2601	experiment	RVvGV	209	0	3	1	0	TNEG	TNEG	3421	experiment	RVvGV	210	0	12	1	0	TNEG	TNEG	3101	experiment	RVvGV	211	0	12	1	0	TNEG	TNEG	3421	experiment	RVvGV	212	0	6	1	0	TNEG	TNEG	3241	experiment	RVvGV	213	1	12	40	0	HIT	HIT	3181	experiment	RVvGV	214	0	6	1	0	TNEG	TNEG	3561	experiment	RVvGV	215	0	18	1	0	TNEG	TNEG	3211	experiment	RVvGV	216	0	6	1	0	TNEG	TNEG	3321	experiment	RVvGV	217	0	18	1	0	TNEG	TNEG	3211	experiment	RVvGV	218	0	18	1	0	TNEG	TNEG	3211	experiment	RVvGV	219	0	18	1	0	TNEG	TNEG	3621	experiment	RVvGV	220	1	6	40	0	HIT	HIT	3561	experiment	RVvGV	221	0	18	1	0	TNEG	TNEG	3381	experiment	RVvGV	222	1	3	40	0	HIT	HIT	2781	experiment	RVvGV	223	1	12	40	0	HIT	HIT	2861	experiment	RVvGV	224	0	12	1	0	TNEG	TNEG	3891	experiment	RVvGV	225	0	3	1	0	TNEG	TNEG	3751	experiment	RVvGV	226	1	6	40	0	HIT	HIT	3081	experiment	RVvGV	227	1	6	40	0	HIT	HIT	2361	experiment	RVvGV	228	1	18	40	0	HIT	HIT	2821	experiment	RVvGV	229	0	6	1	0	TNEG	TNEG	3161	experiment	RVvGV	230	1	3	40	0	HIT	HIT	2621	experiment	RVvGV	231	0	3	1	0	TNEG	TNEG	3421	experiment	RVvGV	232	0	6	1	0	TNEG	TNEG	2991	experiment	RVvGV	233	0	18	1	0	TNEG	TNEG	3461	experiment	RVvGV	234	1	12	40	0	HIT	HIT	3511	experiment	RVvGV	235	0	3	1	0	TNEG	TNEG	3021	experiment	RVvGV	236	0	3	1	0	TNEG	TNEG	2471	experiment	RVvGV	237	0	3	1	0	TNEG	TNEG	4551	experiment	RVvGV	238	0	6	1	0	TNEG	TNEG	2361	experiment	RVvGV	239	1	6	40	0	HIT	HIT	3081	experiment	RVvGV	240	1	3	40	0	HIT	HIT	4551	experiment	RVvGV	241	1	6	40	0	HIT	HIT	2991	experiment	RVvGV	242	1	18	40	0	HIT	HIT	3451	experiment	RVvGV	243	1	12	40	0	HIT	HIT	2861	experiment	RVvGV	244	0	3	1	0	TNEG	TNEG	3351	experiment	RVvGV	245	0	18	1	0	TNEG	TNEG	2731	experiment	RVvGV	246	1	12	40	0	HIT	HIT	3501	experiment	RVvGV	247	1	18	40	0	HIT	HIT	3691	experiment	RVvGV	248	1	6	40	0	HIT	HIT	3081	experiment	RVvGV	249	1	6	40	0	HIT	HIT	3231	experiment	RVvGV	250	0	18	1	0	TNEG	TNEG	3451	experiment	RVvGV	251	0	6	1	0	TNEG	TNEG	2991	experiment	RVvGV	252	0	12	1	0	TNEG	TNEG	2871	experiment	RVvGV	253	1	18	40	0	HIT	HIT	3211	experiment	RVvGV	254	0	6	1	0	TNEG	TNEG	3241	experiment	RVvGV	255	0	3	1	0	TNEG	TNEG	2941	experiment	RVvGV	256	1	3	1	1	MISS	MISS	3101	experiment	RVvGV	257	0	6	1	0	TNEG	TNEG	3321	experiment	RVvGV	258	0	18	1	0	TNEG	TNEG	3211	experiment	RVvGV	259	0	12	1	0	TNEG	TNEG	2941	experiment	RVvGV	260	1	18	40	0	HIT	HIT	2891	experiment	RVvGV	261	1	18	40	0	HIT	HIT	3221	experiment	RVvGV	262	1	18	40	0	HIT	HIT	3371	experiment	RVvGV	263	1	18	40	0	HIT	HIT	3141	experiment	RVvGV	264	0	3	1	0	TNEG	TNEG	3261	experiment	RVvGV	265	0	6	1	0	TNEG	TNEG	3241	experiment	RVvGV	266	1	3	40	0	HIT	HIT	2941	experiment	RVvGV	267	0	6	1	0	TNEG	TNEG	3321	experiment	RVvGV	268	0	3	1	0	TNEG	TNEG	2631	experiment	RVvGV	269	0	6	1	0	TNEG	TNEG	2921	experiment	RVvGV	270	1	12	40	0	HIT	HIT	3821	experiment	RVvGV	271	1	18	40	0	HIT	HIT	3461	experiment	RVvGV	272	1	3	40	0	HIT	HIT	3341	experiment	RVvGV	273	1	12	40	0	HIT	HIT	4541	experiment	RVvGV	274	0	12	1	0	TNEG	TNEG	7431	experiment	RVvGV	275	1	6	40	0	HIT	HIT	3081	experiment	RVvGV	276	0	18	1	0	TNEG	TNEG	3211	experiment	RVvGV	277	0	12	1	0	TNEG	TNEG	4141	experiment	RVvGV	278	0	18	1	0	TNEG	TNEG	3301	experiment	RVvGV	279	0	18	1	0	TNEG	TNEG	3771	experiment	RVvGV	280	0	3	40	1	FA	FA	3421	experiment	RVvGV	281	1	12	40	0	HIT	HIT	3181	experiment	RVvGV	282	1	3	40	0	HIT	HIT	3581	experiment	RVvGV	283	0	18	1	0	TNEG	TNEG	3141	experiment	RVvGV	284	1	6	40	0	HIT	HIT	3001	experiment	RVvGV	285	0	3	1	0	TNEG	TNEG	3111	experiment	RVvGV	286	1	12	40	0	HIT	HIT	3491	experiment	RVvGV	287	0	6	1	0	TNEG	TNEG	2991	experiment	RVvGV	288	1	12	1	1	MISS	MISS	3741	experiment	RVvGV	289	0	18	1	0	TNEG	TNEG	3451	experiment	RVvGV	290	1	18	40	0	HIT	HIT	2971	experiment	RVvGV	291	0	3	1	0	TNEG	TNEG	3661	experiment	RVvGV	292	0	18	1	0	TNEG	TNEG	4411	experiment	RVvGV	293	1	18	40	0	HIT	HIT	4411	experiment	RVvGV	294	0	6	1	0	TNEG	TNEG	3401	experiment	RVvGV	295	0	18	1	0	TNEG	TNEG	3211	experiment	RVvGV	296	0	18	1	0	TNEG	TNEG	3371	experiment	RVvGV	297	0	6	1	0	TNEG	TNEG	3161	experiment	RVvGV	298	1	6	40	0	HIT	HIT	3151	experiment	RVvGV	299	0	18	1	0	TNEG	TNEG	2891	experiment	RVvGV	300	1	18	40	0	HIT	HIT	4021	experiment	RVvGV	301	1	12	40	0	HIT	HIT	3431	experiment	RVvGV	302	0	18	1	0	TNEG	TNEG	3061	experiment	RVvGV	303	0	18	1	0	TNEG	TNEG	2811	experiment	RVvGV	304	1	3	40	0	HIT	HIT	3741	experiment	RVvGV	305	0	18	1	0	TNEG	TNEG	3211	experiment	RVvGV	306	1	12	40	0	HIT	HIT	3911	experiment	RVvGV	307	1	12	40	0	HIT	HIT	3401	experiment	RVvGV	308	1	3	40	0	HIT	HIT	3511	experiment	RVvGV	309	0	12	1	0	TNEG	TNEG	3271	experiment	RVvGV	310	0	12	1	0	TNEG	TNEG	2631	experiment	RVvGV	311	0	3	1	0	TNEG	TNEG	3191	experiment	RVvGV	312	1	18	40	0	HIT	HIT	4251	experiment	RVvGV	313	0	18	1	0	TNEG	TNEG	3301	experiment	RVvGV	314	1	18	40	0	HIT	HIT	3131	experiment	RVvGV	315	0	12	40	1	FA	FA	3901	experiment	RVvGV	316	0	18	1	0	TNEG	TNEG	3121	experiment	RVvGV	317	0	18	1	0	TNEG	TNEG	3291	experiment	RVvGV	318	0	12	1	0	TNEG	TNEG	3181	experiment	RVvGV	319	0	12	1	0	TNEG	TNEG	2541	experiment	RVvGV	320	0	18	1	0	TNEG	TNEG	3141	experiment	RVvGV	321	1	3	40	0	HIT	HIT	3501	experiment	RVvGV	322	0	18	1	0	TNEG	TNEG	3771	experiment	RVvGV	323	0	18	1	0	TNEG	TNEG	3291	experiment	RVvGV	324	1	12	40	0	HIT	HIT	4151	experiment	RVvGV	325	0	18	1	0	TNEG	TNEG	3291	experiment	RVvGV	326	1	12	40	0	HIT	HIT	3741	experiment	RVvGV	327	1	6	40	0	HIT	HIT	3561	experiment	RVvGV	328	1	18	40	0	HIT	HIT	3211	experiment	RVvGV	329	0	3	1	0	TNEG	TNEG	3991	experiment	RVvGV	330	0	6	1	0	TNEG	TNEG	3241	experiment	RVvGV	331	1	12	40	0	HIT	HIT	3351	experiment	RVvGV	332	0	18	1	0	TNEG	TNEG	3221	experiment	RVvGV	333	0	6	1	0	TNEG	TNEG	2831	experiment	RVvGV	334	0	18	1	0	TNEG	TNEG	3201	experiment	RVvGV	335	0	3	1	0	TNEG	TNEG	3191	experiment	RVvGV	336	0	6	1	0	TNEG	TNEG	2841	experiment	RVvGV	337	1	6	40	0	HIT	HIT	2841	experiment	RVvGV	338	0	6	1	0	TNEG	TNEG	3321	experiment	RVvGV	339	1	6	40	0	HIT	HIT	4191	experiment	RVvGV	340	1	3	40	0	HIT	HIT	6151	experiment	RVvGV	341	0	3	1	0	TNEG	TNEG	2951	experiment	RVvGV	342	1	3	1	1	MISS	MISS	4301	experiment	RVvGV	343	0	3	1	0	TNEG	TNEG	9111	experiment	RVvGV	344	1	3	40	0	HIT	HIT	4061	experiment	RVvGV	345	1	3	40	0	HIT	HIT	3661	experiment	RVvGV	346	0	18	1	0	TNEG	TNEG	3611	experiment	RVvGV	347	0	12	1	0	TNEG	TNEG	4701	experiment	RVvGV	348	1	3	40	0	HIT	HIT	4541	experiment	RVvGV	349	1	18	40	0	HIT	HIT	3221	experiment	RVvGV	350	1	12	1	1	MISS	MISS	3351	experiment	RVvGV	351	0	3	1	0	TNEG	TNEG	4221	experiment	RVvGV	352	0	18	1	0	TNEG	TNEG	4651	experiment	RVvGV	353	0	6	1	0	TNEG	TNEG	3481	experiment	RVvGV	354	0	3	1	0	TNEG	TNEG	3191	experiment	RVvGV	355	0	18	1	0	TNEG	TNEG	3051	experiment	RVvGV	356	0	6	1	0	TNEG	TNEG	3001	experiment	RVvGV	357	1	18	40	0	HIT	HIT	3031	experiment	RVvGV	358	1	18	40	0	HIT	HIT	4421	experiment	RVvGV	359	1	12	40	0	HIT	HIT	2951	experiment	RVvGV	360	0	6	1	0	TNEG	TNEG	6361	experiment	RVvGV	361	0	18	1	0	TNEG	TNEG	2741	experiment	RVvGV	362	0	18	1	0	TNEG	TNEG	4101	experiment	RVvGV	363	0	3	1	0	TNEG	TNEG	3021	experiment	RVvGV	364	1	12	40	0	HIT	HIT	3181	experiment	RVvGV	365	0	6	1	0	TNEG	TNEG	8201	experiment	RVvGV	366	1	6	40	0	HIT	HIT	3001	experiment	RVvGV	367	0	18	1	0	TNEG	TNEG	2811	experiment	RVvGV	368	0	12	1	0	TNEG	TNEG	3191	experiment	RVvGV	369	0	6	1	0	TNEG	TNEG	3141	experiment	RVvGV	370	1	3	40	0	HIT	HIT	3341	experiment	RVvGV	371	1	3	40	0	HIT	HIT	4221	experiment	RVvGV	372	1	6	40	0	HIT	HIT	2841	experiment	RVvGV	373	0	12	1	0	TNEG	TNEG	2941	experiment	RVvGV	374	0	6	1	0	TNEG	TNEG	2681	experiment	RVvGV	375	0	18	1	0	TNEG	TNEG	2341	experiment	RVvGV	376	1	12	40	0	HIT	HIT	6541	experiment	RVvGV	377	1	6	40	0	HIT	HIT	2831	experiment	RVvGV	378	1	6	40	0	HIT	HIT	2601	experiment	RVvGV	379	1	12	40	0	HIT	HIT	3031	experiment	RVvGV	380	0	6	1	0	TNEG	TNEG	3321	experiment	RVvGV	381	1	12	40	0	HIT	HIT	3421	experiment	RVvGV	382	0	3	1	0	TNEG	TNEG	3261	experiment	RVvGV	383	0	3	1	0	TNEG	TNEG	2861	experiment	RVvGV	384	1	12	40	0	HIT	HIT	4141	experiment	RVvGV	385	1	6	40	0	HIT	HIT	2921	experiment	RVvGV	386	1	18	40	0	HIT	HIT	3381	experiment	RVvGV	387	0	3	1	0	TNEG	TNEG	3021	experiment	RVvGV	388	0	18	1	0	TNEG	TNEG	3211	experiment	RVvGV	389	1	3	40	0	HIT	HIT	3901	experiment	RVvGV	390	0	18	1	0	TNEG	TNEG	3371	experiment	RVvGV	391	1	3	40	0	HIT	HIT	3431	experiment	RVvGV	392	1	3	40	0	HIT	HIT	2941	experiment	RVvGV	393	1	18	1	1	MISS	MISS	3301	experiment	RVvGV	394	0	3	1	0	TNEG	TNEG	3661	experiment	RVvGV	395	1	3	40	0	HIT	HIT	2781	experiment	RVvGV	396	0	3	1	0	TNEG	TNEG	3101	experiment	RVvGV	397	1	6	40	0	HIT	HIT	3161	experiment	RVvGV	398	0	18	1	0	TNEG	TNEG	3451	experiment	RVvGV	399	1	18	40	0	HIT	HIT	5211	experiment	RVvGV	400	0	6	1	0	TNEG	TNEG	3481	practice	RVvGV	1	1	18	40	0	HIT	HIT	7041	practice	RVvGV	3	1	6	40	0	HIT	HIT	7291	practice	RVvGV	4	0	6	1	0	TNEG	TNEG	3181	practice	RVvGV	5	1	3	40	0	HIT	HIT	3281	practice	RVvGV	6	0	12	1	0	TNEG	TNEG	4991	practice	RVvGV	7	0	12	1	0	TNEG	TNEG	6431	practice	RVvGV	8	0	12	40	1	FA	FA	2751	practice	RVvGV	9	0	12	1	0	TNEG	TNEG	4981	practice	RVvGV	10	0	18	1	0	TNEG	TNEG	3661	experiment	RVvGV	1	0	6	1	0	TNEG	TNEG	4281	experiment	RVvGV	2	1	18	40	0	HIT	HIT	4611	experiment	RVvGV	3	1	3	40	0	HIT	HIT	2651	experiment	RVvGV	4	0	3	1	0	TNEG	TNEG	3041	experiment	RVvGV	5	1	12	40	0	HIT	HIT	2821	experiment	RVvGV	6	0	12	1	0	TNEG	TNEG	2911	experiment	RVvGV	7	1	12	40	0	HIT	HIT	3541	experiment	RVvGV	8	0	18	1	0	TNEG	TNEG	3021	experiment	RVvGV	9	1	12	40	0	HIT	HIT	2981	experiment	RVvGV	10	0	18	1	0	TNEG	TNEG	4701	experiment	RVvGV	11	1	3	40	0	HIT	HIT	3291	experiment	RVvGV	12	1	6	40	0	HIT	HIT	2381	experiment	RVvGV	13	1	12	40	0	HIT	HIT	4571	experiment	RVvGV	14	1	12	40	0	HIT	HIT	2821	experiment	RVvGV	15	0	18	1	0	TNEG	TNEG	3091	experiment	RVvGV	16	1	6	40	0	HIT	HIT	3821	experiment	RVvGV	17	0	12	1	0	TNEG	TNEG	2981	experiment	RVvGV	18	0	12	1	0	TNEG	TNEG	2821	experiment	RVvGV	19	1	12	40	0	HIT	HIT	3291	experiment	RVvGV	20	1	18	40	0	HIT	HIT	4201	experiment	RVvGV	21	0	12	1	0	TNEG	TNEG	2981	experiment	RVvGV	22	0	18	1	0	TNEG	TNEG	3091	experiment	RVvGV	23	0	6	1	0	TNEG	TNEG	2941	experiment	RVvGV	24	0	3	1	0	TNEG	TNEG	3041	experiment	RVvGV	25	1	3	40	0	HIT	HIT	2881	experiment	RVvGV	26	0	18	1	0	TNEG	TNEG	3391	experiment	RVvGV	27	1	6	40	0	HIT	HIT	3341	experiment	RVvGV	28	1	18	40	0	HIT	HIT	3321	experiment	RVvGV	29	0	6	1	0	TNEG	TNEG	2851	experiment	RVvGV	30	1	3	40	0	HIT	HIT	3191	experiment	RVvGV	31	1	6	40	0	HIT	HIT	3261	experiment	RVvGV	32	0	18	1	0	TNEG	TNEG	2681	experiment	RVvGV	33	0	3	1	0	TNEG	TNEG	3281	experiment	RVvGV	34	1	3	40	0	HIT	HIT	3751	experiment	RVvGV	35	1	18	40	0	HIT	HIT	3071	experiment	RVvGV	36	1	18	40	0	HIT	HIT	3061	experiment	RVvGV	37	1	3	40	0	HIT	HIT	2881	experiment	RVvGV	38	0	18	1	0	TNEG	TNEG	3561	experiment	RVvGV	39	0	3	1	0	TNEG	TNEG	3281	experiment	RVvGV	40	1	12	40	0	HIT	HIT	3361	experiment	RVvGV	41	0	18	1	0	TNEG	TNEG	3541	experiment	RVvGV	42	1	3	40	0	HIT	HIT	4391	experiment	RVvGV	43	0	6	1	0	TNEG	TNEG	2611	experiment	RVvGV	44	0	3	1	0	TNEG	TNEG	3031	experiment	RVvGV	45	1	6	40	0	HIT	HIT	3001	experiment	RVvGV	46	0	6	1	0	TNEG	TNEG	3251	experiment	RVvGV	47	1	6	40	0	HIT	HIT	3161	experiment	RVvGV	48	0	12	1	0	TNEG	TNEG	2951	experiment	RVvGV	49	1	3	40	0	HIT	HIT	3511	experiment	RVvGV	50	0	6	1	0	TNEG	TNEG	4611	experiment	RVvGV	51	0	6	1	0	TNEG	TNEG	2761	experiment	RVvGV	52	1	3	40	0	HIT	HIT	3271	experiment	RVvGV	53	1	6	40	0	HIT	HIT	2841	experiment	RVvGV	54	0	3	1	0	TNEG	TNEG	2881	experiment	RVvGV	55	1	12	1	1	MISS	MISS	2801	experiment	RVvGV	56	1	6	40	0	HIT	HIT	4121	experiment	RVvGV	57	0	6	1	0	TNEG	TNEG	3411	experiment	RVvGV	58	1	12	40	0	HIT	HIT	3511	experiment	RVvGV	59	1	6	40	0	HIT	HIT	3331	experiment	RVvGV	60	0	6	1	0	TNEG	TNEG	5641	experiment	RVvGV	61	1	6	40	0	HIT	HIT	3081	experiment	RVvGV	62	0	6	1	0	TNEG	TNEG	3001	experiment	RVvGV	63	0	6	1	0	TNEG	TNEG	3241	experiment	RVvGV	64	0	18	1	0	TNEG	TNEG	2651	experiment	RVvGV	65	0	3	1	0	TNEG	TNEG	3111	experiment	RVvGV	66	1	18	40	0	HIT	HIT	4971	experiment	RVvGV	67	1	18	40	0	HIT	HIT	6581	experiment	RVvGV	68	1	3	1	1	MISS	MISS	2711	experiment	RVvGV	69	1	3	40	0	HIT	HIT	2871	experiment	RVvGV	70	0	18	1	0	TNEG	TNEG	3141	experiment	RVvGV	71	0	18	1	0	TNEG	TNEG	3541	experiment	RVvGV	72	1	3	40	0	HIT	HIT	2871	experiment	RVvGV	73	1	6	40	0	HIT	HIT	2761	experiment	RVvGV	74	1	18	40	0	HIT	HIT	4021	experiment	RVvGV	75	0	3	1	0	TNEG	TNEG	4151	experiment	RVvGV	76	0	18	1	0	TNEG	TNEG	3141	experiment	RVvGV	77	0	6	1	0	TNEG	TNEG	2921	experiment	RVvGV	78	0	6	1	0	TNEG	TNEG	3001	experiment	RVvGV	79	1	12	40	0	HIT	HIT	3511	experiment	RVvGV	80	1	12	40	0	HIT	HIT	2951	experiment	RVvGV	81	0	6	1	0	TNEG	TNEG	3401	experiment	RVvGV	82	0	12	1	0	TNEG	TNEG	2701	experiment	RVvGV	83	1	12	40	0	HIT	HIT	2791	experiment	RVvGV	84	1	6	40	0	HIT	HIT	3091	experiment	RVvGV	85	1	3	40	0	HIT	HIT	3591	experiment	RVvGV	86	1	18	40	0	HIT	HIT	2741	experiment	RVvGV	87	0	6	1	0	TNEG	TNEG	3091	experiment	RVvGV	88	0	12	1	0	TNEG	TNEG	2551	experiment	RVvGV	89	1	12	1	1	MISS	MISS	3351	experiment	RVvGV	90	0	6	40	1	FA	FA	3321	experiment	RVvGV	91	0	18	1	0	TNEG	TNEG	2821	experiment	RVvGV	92	0	6	1	0	TNEG	TNEG	2521	experiment	RVvGV	93	1	3	40	0	HIT	HIT	3101	experiment	RVvGV	94	0	12	1	0	TNEG	TNEG	3101	experiment	RVvGV	95	0	18	1	0	TNEG	TNEG	2811	experiment	RVvGV	96	0	3	1	0	TNEG	TNEG	2861	experiment	RVvGV	97	1	18	40	0	HIT	HIT	3051	experiment	RVvGV	98	0	3	1	0	TNEG	TNEG	2951	experiment	RVvGV	99	1	18	1	1	MISS	MISS	3621	experiment	RVvGV	100	0	18	1	0	TNEG	TNEG	4501	experiment	RVvGV	101	0	12	1	0	TNEG	TNEG	4071	experiment	RVvGV	102	1	18	40	0	HIT	HIT	3941	experiment	RVvGV	103	0	18	1	0	TNEG	TNEG	3061	experiment	RVvGV	104	1	6	40	0	HIT	HIT	3321	experiment	RVvGV	105	1	12	40	0	HIT	HIT	3511	experiment	RVvGV	106	1	12	40	0	HIT	HIT	3991	experiment	RVvGV	107	0	6	1	0	TNEG	TNEG	3561	experiment	RVvGV	108	0	6	1	0	TNEG	TNEG	3721	experiment	RVvGV	109	0	12	1	0	TNEG	TNEG	3351	experiment	RVvGV	110	1	6	40	0	HIT	HIT	3881	experiment	RVvGV	111	1	3	40	0	HIT	HIT	2151	experiment	RVvGV	112	0	12	1	0	TNEG	TNEG	3271	experiment	RVvGV	113	1	6	40	0	HIT	HIT	3001	experiment	RVvGV	114	0	3	1	0	TNEG	TNEG	2541	experiment	RVvGV	115	0	3	1	0	TNEG	TNEG	2951	experiment	RVvGV	116	1	12	40	0	HIT	HIT	2471	experiment	RVvGV	117	1	6	40	0	HIT	HIT	3241	experiment	RVvGV	118	0	12	40	1	FA	FA	2631	experiment	RVvGV	119	1	6	40	0	HIT	HIT	3961	experiment	RVvGV	120	1	3	40	0	HIT	HIT	4311	experiment	RVvGV	121	1	12	40	0	HIT	HIT	3431	experiment	RVvGV	122	1	3	40	0	HIT	HIT	3021	experiment	RVvGV	123	0	12	1	0	TNEG	TNEG	2951	experiment	RVvGV	124	1	12	40	0	HIT	HIT	4871	experiment	RVvGV	125	0	18	1	0	TNEG	TNEG	2901	experiment	RVvGV	126	0	12	1	0	TNEG	TNEG	2711	experiment	RVvGV	127	1	3	40	0	HIT	HIT	3191	experiment	RVvGV	128	1	12	40	0	HIT	HIT	2721	experiment	RVvGV	129	1	3	40	0	HIT	HIT	3911	experiment	RVvGV	130	1	18	40	0	HIT	HIT	6571	experiment	RVvGV	131	1	6	1	1	MISS	MISS	3001	experiment	RVvGV	132	1	18	40	0	HIT	HIT	3221	experiment	RVvGV	133	1	12	40	0	HIT	HIT	3031	experiment	RVvGV	134	0	18	1	0	TNEG	TNEG	3461	experiment	RVvGV	135	0	12	1	0	TNEG	TNEG	3511	experiment	RVvGV	136	1	12	40	0	HIT	HIT	3821	experiment	RVvGV	137	1	18	40	0	HIT	HIT	4011	experiment	RVvGV	138	0	3	1	0	TNEG	TNEG	5111	experiment	RVvGV	139	0	3	1	0	TNEG	TNEG	3431	experiment	RVvGV	140	0	3	1	0	TNEG	TNEG	2951	experiment	RVvGV	141	1	18	40	0	HIT	HIT	3691	experiment	RVvGV	142	0	3	1	0	TNEG	TNEG	3751	experiment	RVvGV	143	1	3	40	0	HIT	HIT	4071	experiment	RVvGV	144	1	6	40	0	HIT	HIT	4521	experiment	RVvGV	145	0	3	1	0	TNEG	TNEG	4711	experiment	RVvGV	146	0	3	1	0	TNEG	TNEG	7431	experiment	RVvGV	147	0	12	1	0	TNEG	TNEG	2871	experiment	RVvGV	148	0	6	1	0	TNEG	TNEG	2921	experiment	RVvGV	149	1	18	40	0	HIT	HIT	3691	experiment	RVvGV	150	1	6	40	0	HIT	HIT	4201	experiment	RVvGV	151	1	6	40	0	HIT	HIT	3481	experiment	RVvGV	152	0	6	1	0	TNEG	TNEG	3481	experiment	RVvGV	153	1	12	40	0	HIT	HIT	3431	experiment	RVvGV	154	1	3	40	0	HIT	HIT	3191	experiment	RVvGV	155	1	12	40	0	HIT	HIT	3351	experiment	RVvGV	156	1	6	40	0	HIT	HIT	3071	experiment	RVvGV	157	0	18	1	0	TNEG	TNEG	3201	experiment	RVvGV	158	1	18	40	0	HIT	HIT	2981	experiment	RVvGV	159	1	3	40	0	HIT	HIT	3031	experiment	RVvGV	160	0	3	1	0	TNEG	TNEG	3591	experiment	RVvGV	161	0	12	1	0	TNEG	TNEG	3181	experiment	RVvGV	162	0	3	1	0	TNEG	TNEG	3661	experiment	RVvGV	163	0	3	1	0	TNEG	TNEG	3111	experiment	RVvGV	164	0	18	1	0	TNEG	TNEG	3061	experiment	RVvGV	165	0	6	1	0	TNEG	TNEG	3401	experiment	RVvGV	166	1	6	40	0	HIT	HIT	3321	experiment	RVvGV	167	0	12	1	0	TNEG	TNEG	3271	experiment	RVvGV	168	1	18	40	0	HIT	HIT	4331	experiment	RVvGV	169	0	18	1	0	TNEG	TNEG	2981	experiment	RVvGV	170	0	6	1	0	TNEG	TNEG	2841	experiment	RVvGV	171	0	12	1	0	TNEG	TNEG	2871	experiment	RVvGV	172	0	12	1	0	TNEG	TNEG	2711	experiment	RVvGV	173	0	6	1	0	TNEG	TNEG	2681	experiment	RVvGV	174	1	12	40	0	HIT	HIT	3891	experiment	RVvGV	175	1	3	40	0	HIT	HIT	3031	experiment	RVvGV	176	1	12	40	0	HIT	HIT	4311	experiment	RVvGV	177	0	3	1	0	TNEG	TNEG	3911	experiment	RVvGV	178	1	3	1	1	MISS	MISS	3021	experiment	RVvGV	179	0	18	1	0	TNEG	TNEG	3371	experiment	RVvGV	180	0	3	1	0	TNEG	TNEG	3671	experiment	RVvGV	181	1	3	40	0	HIT	HIT	3351	experiment	RVvGV	182	1	6	40	0	HIT	HIT	2841	experiment	RVvGV	183	0	18	1	0	TNEG	TNEG	2911	experiment	RVvGV	184	0	12	1	0	TNEG	TNEG	3991	experiment	RVvGV	185	1	3	40	0	HIT	HIT	4311	experiment	RVvGV	186	1	6	40	0	HIT	HIT	5001	experiment	RVvGV	187	0	12	1	0	TNEG	TNEG	3111	experiment	RVvGV	188	0	18	1	0	TNEG	TNEG	3381	experiment	RVvGV	189	1	12	40	0	HIT	HIT	3981	experiment	RVvGV	190	0	12	1	0	TNEG	TNEG	3831	experiment	RVvGV	191	1	3	40	0	HIT	HIT	3831	experiment	RVvGV	192	0	6	1	0	TNEG	TNEG	3231	experiment	RVvGV	193	1	3	40	0	HIT	HIT	3271	experiment	RVvGV	194	1	3	40	0	HIT	HIT	7651	experiment	RVvGV	195	0	3	1	0	TNEG	TNEG	5111	experiment	RVvGV	196	1	18	40	0	HIT	HIT	4181	experiment	RVvGV	197	0	6	1	0	TNEG	TNEG	3081	experiment	RVvGV	198	1	12	40	0	HIT	HIT	3181	experiment	RVvGV	199	0	3	1	0	TNEG	TNEG	3351	experiment	RVvGV	200	0	3	1	0	TNEG	TNEG	3261	experiment	RVvGV	201	0	12	1	0	TNEG	TNEG	3351	experiment	RVvGV	202	0	12	1	0	TNEG	TNEG	3671	experiment	RVvGV	203	0	6	1	0	TNEG	TNEG	3241	experiment	RVvGV	204	1	3	40	0	HIT	HIT	4061	experiment	RVvGV	205	1	6	40	0	HIT	HIT	4361	experiment	RVvGV	206	0	18	1	0	TNEG	TNEG	3541	experiment	RVvGV	207	1	6	40	0	HIT	HIT	6041	experiment	RVvGV	208	1	12	40	0	HIT	HIT	3191	experiment	RVvGV	209	1	6	40	0	HIT	HIT	3081	experiment	RVvGV	210	0	3	1	0	TNEG	TNEG	2871	experiment	RVvGV	211	1	6	40	0	HIT	HIT	4281	experiment	RVvGV	212	1	6	40	0	HIT	HIT	3721	experiment	RVvGV	213	1	6	40	0	HIT	HIT	2841	experiment	RVvGV	214	1	12	40	0	HIT	HIT	3591	experiment	RVvGV	215	1	3	40	0	HIT	HIT	6391	experiment	RVvGV	216	1	18	40	0	HIT	HIT	3771	experiment	RVvGV	217	0	18	1	0	TNEG	TNEG	13061	experiment	RVvGV	218	1	18	40	0	HIT	HIT	6241	experiment	RVvGV	219	1	12	40	0	HIT	HIT	3111	experiment	RVvGV	220	0	12	1	0	TNEG	TNEG	3351	experiment	RVvGV	221	0	18	1	0	TNEG	TNEG	3131	experiment	RVvGV	222	0	6	1	0	TNEG	TNEG	3321	experiment	RVvGV	223	0	18	1	0	TNEG	TNEG	3451	experiment	RVvGV	224	0	18	1	0	TNEG	TNEG	2891	experiment	RVvGV	225	1	18	40	0	HIT	HIT	3861	experiment	RVvGV	226	0	3	1	0	TNEG	TNEG	3581	experiment	RVvGV	227	1	12	40	0	HIT	HIT	4141	experiment	RVvGV	228	0	6	1	0	TNEG	TNEG	2841	experiment	RVvGV	229	1	3	40	0	HIT	HIT	3911	experiment	RVvGV	230	1	12	1	1	MISS	MISS	3431	experiment	RVvGV	231	1	3	40	0	HIT	HIT	3361	experiment	RVvGV	232	1	18	40	0	HIT	HIT	3301	experiment	RVvGV	233	0	3	1	0	TNEG	TNEG	3111	experiment	RVvGV	234	1	12	40	0	HIT	HIT	3351	experiment	RVvGV	235	0	12	1	0	TNEG	TNEG	3111	experiment	RVvGV	236	1	18	40	0	HIT	HIT	3941	experiment	RVvGV	237	1	12	40	0	HIT	HIT	3261	experiment	RVvGV	238	1	6	40	0	HIT	HIT	2921	experiment	RVvGV	239	0	12	1	0	TNEG	TNEG	3431	experiment	RVvGV	240	1	18	40	0	HIT	HIT	3061	experiment	RVvGV	241	1	18	40	0	HIT	HIT	2581	experiment	RVvGV	242	1	6	40	0	HIT	HIT	2761	experiment	RVvGV	243	0	12	1	0	TNEG	TNEG	3351	experiment	RVvGV	244	1	6	40	0	HIT	HIT	6111	experiment	RVvGV	245	1	3	40	0	HIT	HIT	4391	experiment	RVvGV	246	1	18	40	0	HIT	HIT	4421	experiment	RVvGV	247	0	12	1	0	TNEG	TNEG	3991	experiment	RVvGV	248	0	18	1	0	TNEG	TNEG	3541	experiment	RVvGV	249	0	6	1	0	TNEG	TNEG	4041	experiment	RVvGV	250	1	12	40	0	HIT	HIT	3831	experiment	RVvGV	251	0	3	1	0	TNEG	TNEG	2471	experiment	RVvGV	252	1	12	40	0	HIT	HIT	1991	experiment	RVvGV	253	1	6	40	0	HIT	HIT	2921	experiment	RVvGV	254	0	18	1	0	TNEG	TNEG	3861	experiment	RVvGV	255	1	12	40	0	HIT	HIT	4081	experiment	RVvGV	256	1	3	40	0	HIT	HIT	3101	experiment	RVvGV	257	1	3	40	0	HIT	HIT	2791	experiment	RVvGV	258	0	12	1	0	TNEG	TNEG	3191	experiment	RVvGV	259	1	18	40	0	HIT	HIT	5051	experiment	RVvGV	260	1	6	40	0	HIT	HIT	3081	experiment	RVvGV	261	1	12	40	0	HIT	HIT	5031	experiment	RVvGV	262	1	12	40	0	HIT	HIT	2711	experiment	RVvGV	263	1	6	40	0	HIT	HIT	3001	experiment	RVvGV	264	0	18	1	0	TNEG	TNEG	4821	experiment	RVvGV	265	0	6	1	0	TNEG	TNEG	3401	experiment	RVvGV	266	0	3	1	0	TNEG	TNEG	3431	experiment	RVvGV	267	0	6	40	1	FA	FA	3081	experiment	RVvGV	268	0	6	1	0	TNEG	TNEG	3241	experiment	RVvGV	269	0	3	1	0	TNEG	TNEG	3111	experiment	RVvGV	270	0	12	1	0	TNEG	TNEG	3111	experiment	RVvGV	271	0	12	1	0	TNEG	TNEG	2711	experiment	RVvGV	272	0	6	1	0	TNEG	TNEG	3241	experiment	RVvGV	273	0	12	1	0	TNEG	TNEG	5271	experiment	RVvGV	274	1	18	40	0	HIT	HIT	5221	experiment	RVvGV	275	1	18	40	0	HIT	HIT	3381	experiment	RVvGV	276	0	6	1	0	TNEG	TNEG	3331	experiment	RVvGV	277	1	3	1	1	MISS	MISS	4871	experiment	RVvGV	278	0	6	1	0	TNEG	TNEG	3801	experiment	RVvGV	279	0	18	1	0	TNEG	TNEG	4821	experiment	RVvGV	280	0	18	1	0	TNEG	TNEG	3861	experiment	RVvGV	281	1	18	40	0	HIT	HIT	3541	experiment	RVvGV	282	0	6	1	0	TNEG	TNEG	3161	experiment	RVvGV	283	1	18	1	1	MISS	MISS	3691	experiment	RVvGV	284	1	18	40	0	HIT	HIT	3211	experiment	RVvGV	285	1	12	40	0	HIT	HIT	3111	experiment	RVvGV	286	1	18	40	0	HIT	HIT	2981	experiment	RVvGV	287	1	12	1	1	MISS	MISS	3431	experiment	RVvGV	288	0	3	1	0	TNEG	TNEG	6951	experiment	RVvGV	289	1	12	40	0	HIT	HIT	3591	experiment	RVvGV	290	0	3	1	0	TNEG	TNEG	3341	experiment	RVvGV	291	1	12	40	0	HIT	HIT	3591	experiment	RVvGV	292	1	6	40	0	HIT	HIT	3231	experiment	RVvGV	293	1	18	40	0	HIT	HIT	3141	experiment	RVvGV	294	0	3	1	0	TNEG	TNEG	3361	experiment	RVvGV	295	1	6	40	0	HIT	HIT	3481	experiment	RVvGV	296	1	18	40	0	HIT	HIT	3461	experiment	RVvGV	297	0	12	1	0	TNEG	TNEG	3511	experiment	RVvGV	298	1	6	40	0	HIT	HIT	3721	experiment	RVvGV	299	1	6	40	0	HIT	HIT	3711	experiment	RVvGV	300	1	3	40	0	HIT	HIT	3991	experiment	RVvGV	301	1	3	40	0	HIT	HIT	3421	experiment	RVvGV	302	0	18	1	0	TNEG	TNEG	3461	experiment	RVvGV	303	0	12	1	0	TNEG	TNEG	3271	experiment	RVvGV	304	1	18	40	0	HIT	HIT	8891	experiment	RVvGV	305	1	18	40	0	HIT	HIT	3781	experiment	RVvGV	306	0	6	1	0	TNEG	TNEG	4361	experiment	RVvGV	307	1	12	40	0	HIT	HIT	3901	experiment	RVvGV	308	1	3	40	0	HIT	HIT	3351	experiment	RVvGV	309	0	18	1	0	TNEG	TNEG	4571	experiment	RVvGV	310	0	6	1	0	TNEG	TNEG	3971	experiment	RVvGV	311	0	12	1	0	TNEG	TNEG	3351	experiment	RVvGV	312	0	12	1	0	TNEG	TNEG	3751	experiment	RVvGV	313	1	18	40	0	HIT	HIT	4331	experiment	RVvGV	314	0	18	1	0	TNEG	TNEG	3301	experiment	RVvGV	315	1	12	40	0	HIT	HIT	3751	experiment	RVvGV	316	0	3	1	0	TNEG	TNEG	7421	experiment	RVvGV	317	1	3	40	0	HIT	HIT	3341	experiment	RVvGV	318	0	12	1	0	TNEG	TNEG	3111	experiment	RVvGV	319	0	3	1	0	TNEG	TNEG	3181	experiment	RVvGV	320	1	18	40	0	HIT	HIT	3611	experiment	RVvGV	321	0	18	1	0	TNEG	TNEG	3461	experiment	RVvGV	322	1	18	40	0	HIT	HIT	3291	experiment	RVvGV	323	0	6	1	0	TNEG	TNEG	3331	experiment	RVvGV	324	0	12	1	0	TNEG	TNEG	3111	experiment	RVvGV	325	1	3	40	0	HIT	HIT	3671	experiment	RVvGV	326	1	6	40	0	HIT	HIT	5001	experiment	RVvGV	327	1	6	40	0	HIT	HIT	3251	experiment	RVvGV	328	0	6	1	0	TNEG	TNEG	4051	experiment	RVvGV	329	0	18	1	0	TNEG	TNEG	3461	experiment	RVvGV	330	0	12	1	0	TNEG	TNEG	3831	experiment	RVvGV	331	1	6	40	0	HIT	HIT	4361	experiment	RVvGV	332	1	12	40	0	HIT	HIT	7601	experiment	RVvGV	333	1	12	40	0	HIT	HIT	3351	experiment	RVvGV	334	1	18	40	0	HIT	HIT	3461	experiment	RVvGV	335	1	18	40	0	HIT	HIT	3541	experiment	RVvGV	336	0	6	1	0	TNEG	TNEG	3401	experiment	RVvGV	337	0	18	1	0	TNEG	TNEG	2981	experiment	RVvGV	338	1	6	40	0	HIT	HIT	7951	experiment	RVvGV	339	0	12	1	0	TNEG	TNEG	3511	experiment	RVvGV	340	0	18	1	0	TNEG	TNEG	3131	experiment	RVvGV	341	0	3	1	0	TNEG	TNEG	4711	experiment	RVvGV	342	1	18	40	0	HIT	HIT	6261	experiment	RVvGV	343	0	18	1	0	TNEG	TNEG	3691	experiment	RVvGV	344	0	6	1	0	TNEG	TNEG	3311	experiment	RVvGV	345	0	6	1	0	TNEG	TNEG	3401	experiment	RVvGV	346	0	12	1	0	TNEG	TNEG	3191	experiment	RVvGV	347	1	3	40	0	HIT	HIT	3501	experiment	RVvGV	348	1	18	40	0	HIT	HIT	3701	experiment	RVvGV	349	0	12	1	0	TNEG	TNEG	3911	experiment	RVvGV	350	0	3	1	0	TNEG	TNEG	3511	experiment	RVvGV	351	1	3	40	0	HIT	HIT	5751	experiment	RVvGV	352	0	18	1	0	TNEG	TNEG	3691	experiment	RVvGV	353	1	3	40	0	HIT	HIT	3111	experiment	RVvGV	354	0	18	1	0	TNEG	TNEG	2901	experiment	RVvGV	355	1	12	40	0	HIT	HIT	3831	experiment	RVvGV	356	1	18	40	0	HIT	HIT	3621	experiment	RVvGV	357	1	12	40	0	HIT	HIT	3021	experiment	RVvGV	358	1	6	40	0	HIT	HIT	2761	experiment	RVvGV	359	0	18	1	0	TNEG	TNEG	3531	experiment	RVvGV	360	0	6	1	0	TNEG	TNEG	3311	experiment	RVvGV	361	1	6	1	1	MISS	MISS	2991	experiment	RVvGV	362	0	18	1	0	TNEG	TNEG	3861	experiment	RVvGV	363	1	12	40	0	HIT	HIT	3831	experiment	RVvGV	364	1	3	1	1	MISS	MISS	3191	experiment	RVvGV	365	0	6	1	0	TNEG	TNEG	6211	experiment	RVvGV	366	0	12	1	0	TNEG	TNEG	3351	experiment	RVvGV	367	0	6	1	0	TNEG	TNEG	3241	experiment	RVvGV	368	0	6	1	0	TNEG	TNEG	3401	experiment	RVvGV	369	1	6	40	0	HIT	HIT	3081	experiment	RVvGV	370	0	12	1	0	TNEG	TNEG	3351	experiment	RVvGV	371	0	18	1	0	TNEG	TNEG	3461	experiment	RVvGV	372	1	12	40	0	HIT	HIT	3821	experiment	RVvGV	373	0	6	1	0	TNEG	TNEG	3721	experiment	RVvGV	374	0	18	1	0	TNEG	TNEG	5061	experiment	RVvGV	375	1	6	40	0	HIT	HIT	7081	experiment	RVvGV	376	1	6	40	0	HIT	HIT	4441	experiment	RVvGV	377	0	6	1	0	TNEG	TNEG	3401	experiment	RVvGV	378	1	6	40	0	HIT	HIT	4851	experiment	RVvGV	379	1	6	40	0	HIT	HIT	3491	experiment	RVvGV	380	0	18	1	0	TNEG	TNEG	3631	experiment	RVvGV	381	1	3	40	0	HIT	HIT	4451	experiment	RVvGV	382	0	18	1	0	TNEG	TNEG	3061	experiment	RVvGV	383	1	12	40	0	HIT	HIT	3191	experiment	RVvGV	384	0	3	1	0	TNEG	TNEG	3431	experiment	RVvGV	385	0	12	1	0	TNEG	TNEG	3031	experiment	RVvGV	386	1	3	40	0	HIT	HIT	3341	experiment	RVvGV	387	0	18	1	0	TNEG	TNEG	5861	experiment	RVvGV	388	1	3	40	0	HIT	HIT	3981	experiment	RVvGV	389	1	6	40	0	HIT	HIT	4281	experiment	RVvGV	390	0	6	1	0	TNEG	TNEG	3481	experiment	RVvGV	391	1	12	40	0	HIT	HIT	4151	experiment	RVvGV	392	1	6	40	0	HIT	HIT	3241	experiment	RVvGV	393	0	18	1	0	TNEG	TNEG	3221	experiment	RVvGV	394	0	18	1	0	TNEG	TNEG	3141	experiment	RVvGV	395	1	6	40	0	HIT	HIT	4921	experiment	RVvGV	396	0	3	1	0	TNEG	TNEG	3271	experiment	RVvGV	397	1	18	40	0	HIT	HIT	5381	experiment	RVvGV	398	1	3	40	0	HIT	HIT	3501	experiment	RVvGV	399	0	6	1	0	TNEG	TNEG	3241	experiment	RVvGV	400	1	18	40	0	HIT	HIT	3381	practice	RVvGV	1	1	18	40	0	HIT	HIT	204081	practice	RVvGV	2	1	3	40	0	HIT	HIT	3501	practice	RVvGV	3	1	12	40	0	HIT	HIT	2821	practice	RVvGV	4	1	6	40	0	HIT	HIT	2631	practice	RVvGV	5	1	18	40	0	HIT	HIT	3341	practice	RVvGV	6	1	18	40	0	HIT	HIT	3021	practice	RVvGV	7	0	6	1	0	TNEG	TNEG	4381	practice	RVvGV	8	0	12	1	0	TNEG	TNEG	10261	practice	RVvGV	9	0	3	40	1	FA	FA	3361	practice	RVvGV	10	0	3	1	0	TNEG	TNEG	12481	experiment	RVvGV	1	1	6	40	0	HIT	HIT	3231	experiment	RVvGV	2	0	18	1	0	TNEG	TNEG	3181	experiment	RVvGV	3	1	12	40	0	HIT	HIT	4421	experiment	RVvGV	4	0	3	1	0	TNEG	TNEG	3761	experiment	RVvGV	5	0	12	1	0	TNEG	TNEG	3701	experiment	RVvGV	6	1	12	40	0	HIT	HIT	3061	experiment	RVvGV	7	0	3	1	0	TNEG	TNEG	3531	experiment	RVvGV	8	0	18	1	0	TNEG	TNEG	2941	experiment	RVvGV	9	0	18	1	0	TNEG	TNEG	2701	experiment	RVvGV	10	1	18	40	0	HIT	HIT	4381	experiment	RVvGV	11	1	3	40	0	HIT	HIT	3921	experiment	RVvGV	12	0	6	1	0	TNEG	TNEG	3901	experiment	RVvGV	13	1	6	40	0	HIT	HIT	3891	experiment	RVvGV	14	0	18	1	0	TNEG	TNEG	4211	experiment	RVvGV	15	0	12	1	0	TNEG	TNEG	3861	experiment	RVvGV	16	0	3	1	0	TNEG	TNEG	3611	experiment	RVvGV	17	1	3	40	0	HIT	HIT	3601	experiment	RVvGV	18	0	3	1	0	TNEG	TNEG	3361	experiment	RVvGV	19	0	18	1	0	TNEG	TNEG	3571	experiment	RVvGV	20	1	18	40	0	HIT	HIT	3891	experiment	RVvGV	21	0	3	1	0	TNEG	TNEG	3281	experiment	RVvGV	22	1	18	1	1	MISS	MISS	3081	experiment	RVvGV	23	0	6	1	0	TNEG	TNEG	4461	experiment	RVvGV	24	1	12	40	0	HIT	HIT	3281	experiment	RVvGV	25	1	3	40	0	HIT	HIT	4471	experiment	RVvGV	26	1	3	40	0	HIT	HIT	3761	experiment	RVvGV	27	1	3	40	0	HIT	HIT	4161	experiment	RVvGV	28	0	18	1	0	TNEG	TNEG	6051	experiment	RVvGV	29	1	18	1	1	MISS	MISS	3401	experiment	RVvGV	30	0	18	1	0	TNEG	TNEG	2911	experiment	RVvGV	31	1	3	40	0	HIT	HIT	3431	experiment	RVvGV	32	1	12	40	0	HIT	HIT	2961	experiment	RVvGV	33	0	3	1	0	TNEG	TNEG	3441	experiment	RVvGV	34	0	12	1	0	TNEG	TNEG	3281	experiment	RVvGV	35	0	12	1	0	TNEG	TNEG	3441	experiment	RVvGV	36	1	18	40	0	HIT	HIT	3791	experiment	RVvGV	37	0	18	1	0	TNEG	TNEG	3721	experiment	RVvGV	38	1	3	40	0	HIT	HIT	4151	experiment	RVvGV	39	0	3	1	0	TNEG	TNEG	3191	experiment	RVvGV	40	0	12	1	0	TNEG	TNEG	4141	experiment	RVvGV	41	1	18	40	0	HIT	HIT	3791	experiment	RVvGV	42	1	3	40	0	HIT	HIT	3351	experiment	RVvGV	43	1	3	40	0	HIT	HIT	4001	experiment	RVvGV	44	0	6	1	0	TNEG	TNEG	3561	experiment	RVvGV	45	0	12	1	0	TNEG	TNEG	3101	experiment	RVvGV	46	1	6	1	1	MISS	MISS	3561	experiment	RVvGV	47	1	18	40	0	HIT	HIT	8341	experiment	RVvGV	48	1	18	40	0	HIT	HIT	3391	experiment	RVvGV	49	0	18	1	0	TNEG	TNEG	3621	experiment	RVvGV	50	1	12	40	0	HIT	HIT	3731	experiment	RVvGV	51	1	3	40	0	HIT	HIT	3351	experiment	RVvGV	52	0	6	1	0	TNEG	TNEG	3561	experiment	RVvGV	53	0	6	1	0	TNEG	TNEG	3091	experiment	RVvGV	54	1	18	40	0	HIT	HIT	4261	experiment	RVvGV	55	0	12	1	0	TNEG	TNEG	4071	experiment	RVvGV	56	1	18	40	0	HIT	HIT	4821	experiment	RVvGV	57	1	12	40	0	HIT	HIT	3501	experiment	RVvGV	58	0	6	1	0	TNEG	TNEG	10281	experiment	RVvGV	59	0	12	1	0	TNEG	TNEG	3191	experiment	RVvGV	60	0	6	1	0	TNEG	TNEG	7961	experiment	RVvGV	61	0	3	1	0	TNEG	TNEG	3671	experiment	RVvGV	62	1	12	40	0	HIT	HIT	3831	experiment	RVvGV	63	0	18	1	0	TNEG	TNEG	2981	experiment	RVvGV	64	1	3	40	0	HIT	HIT	3021	experiment	RVvGV	65	1	6	40	0	HIT	HIT	3721	experiment	RVvGV	66	0	3	1	0	TNEG	TNEG	3101	experiment	RVvGV	67	1	18	1	1	MISS	MISS	2981	experiment	RVvGV	68	1	12	40	0	HIT	HIT	2871	experiment	RVvGV	69	1	18	40	0	HIT	HIT	3381	experiment	RVvGV	70	1	18	40	0	HIT	HIT	2901	experiment	RVvGV	71	0	12	1	0	TNEG	TNEG	3271	experiment	RVvGV	72	0	6	1	0	TNEG	TNEG	5001	experiment	RVvGV	74	0	3	1	0	TNEG	TNEG	4041	experiment	RVvGV	75	0	6	1	0	TNEG	TNEG	3341	experiment	RVvGV	76	0	18	1	0	TNEG	TNEG	2951	experiment	RVvGV	77	1	18	1	1	MISS	MISS	3101	experiment	RVvGV	78	1	6	40	0	HIT	HIT	2781	experiment	RVvGV	79	1	6	40	0	HIT	HIT	3731	experiment	RVvGV	80	0	12	1	0	TNEG	TNEG	3701	experiment	RVvGV	81	0	3	1	0	TNEG	TNEG	3371	experiment	RVvGV	82	1	18	40	0	HIT	HIT	3101	experiment	RVvGV	83	1	12	40	0	HIT	HIT	4261	experiment	RVvGV	84	1	3	40	0	HIT	HIT	2881	experiment	RVvGV	85	0	6	1	0	TNEG	TNEG	3181	experiment	RVvGV	86	0	3	1	0	TNEG	TNEG	3291	experiment	RVvGV	87	1	12	40	0	HIT	HIT	4101	experiment	RVvGV	88	1	6	40	0	HIT	HIT	2541	experiment	RVvGV	89	0	18	1	0	TNEG	TNEG	3091	experiment	RVvGV	90	1	6	40	0	HIT	HIT	4301	experiment	RVvGV	91	1	18	40	0	HIT	HIT	2371	experiment	RVvGV	92	0	18	1	0	TNEG	TNEG	3581	experiment	RVvGV	93	1	6	40	0	HIT	HIT	2291	experiment	RVvGV	94	1	18	1	1	MISS	MISS	3011	experiment	RVvGV	95	1	6	40	0	HIT	HIT	2931	experiment	RVvGV	96	0	3	1	0	TNEG	TNEG	4001	experiment	RVvGV	97	0	18	1	0	TNEG	TNEG	3001	experiment	RVvGV	98	1	18	40	0	HIT	HIT	3241	experiment	RVvGV	99	1	6	40	0	HIT	HIT	4131	experiment	RVvGV	100	1	18	40	0	HIT	HIT	3641	experiment	RVvGV	101	1	6	40	0	HIT	HIT	2861	experiment	RVvGV	102	0	6	1	0	TNEG	TNEG	3491	experiment	RVvGV	103	0	3	1	0	TNEG	TNEG	8321	experiment	RVvGV	104	0	18	1	0	TNEG	TNEG	3081	experiment	RVvGV	105	0	12	1	0	TNEG	TNEG	2721	experiment	RVvGV	106	1	6	40	0	HIT	HIT	3491	experiment	RVvGV	107	1	3	40	0	HIT	HIT	3201	experiment	RVvGV	108	0	3	1	0	TNEG	TNEG	3201	experiment	RVvGV	109	0	18	1	0	TNEG	TNEG	3221	experiment	RVvGV	110	1	12	40	0	HIT	HIT	2561	experiment	RVvGV	111	1	6	40	0	HIT	HIT	2531	experiment	RVvGV	112	0	12	1	0	TNEG	TNEG	3521	experiment	RVvGV	113	1	6	40	0	HIT	HIT	2451	experiment	RVvGV	114	0	3	40	1	FA	FA	3831	experiment	RVvGV	115	0	3	1	0	TNEG	TNEG	3511	experiment	RVvGV	116	0	12	1	0	TNEG	TNEG	3341	experiment	RVvGV	117	1	6	40	0	HIT	HIT	3401	experiment	RVvGV	118	0	18	1	0	TNEG	TNEG	3621	experiment	RVvGV	119	0	12	1	0	TNEG	TNEG	2961	experiment	RVvGV	120	0	18	1	0	TNEG	TNEG	3541	experiment	RVvGV	121	1	12	40	0	HIT	HIT	4391	experiment	RVvGV	122	0	18	1	0	TNEG	TNEG	3291	experiment	RVvGV	123	1	6	40	0	HIT	HIT	3881	experiment	RVvGV	124	1	18	40	0	HIT	HIT	5461	experiment	RVvGV	125	0	6	1	0	TNEG	TNEG	3641	experiment	RVvGV	126	0	18	1	0	TNEG	TNEG	3381	experiment	RVvGV	127	1	12	40	0	HIT	HIT	3751	experiment	RVvGV	128	1	18	40	0	HIT	HIT	3461	experiment	RVvGV	129	1	18	40	0	HIT	HIT	3061	experiment	RVvGV	130	0	18	1	0	TNEG	TNEG	3211	experiment	RVvGV	131	0	6	1	0	TNEG	TNEG	4281	experiment	RVvGV	132	1	6	40	0	HIT	HIT	3561	experiment	RVvGV	133	1	6	40	0	HIT	HIT	6751	experiment	RVvGV	134	0	6	1	0	TNEG	TNEG	4681	experiment	RVvGV	135	1	3	40	0	HIT	HIT	5111	experiment	RVvGV	136	1	12	40	0	HIT	HIT	4471	experiment	RVvGV	137	0	3	1	0	TNEG	TNEG	5181	experiment	RVvGV	138	0	3	1	0	TNEG	TNEG	3911	experiment	RVvGV	139	1	6	40	0	HIT	HIT	5711	experiment	RVvGV	140	1	3	40	0	HIT	HIT	4151	experiment	RVvGV	141	1	3	1	1	MISS	MISS	6541	experiment	RVvGV	142	0	18	1	0	TNEG	TNEG	3461	experiment	RVvGV	143	0	3	1	0	TNEG	TNEG	3101	experiment	RVvGV	144	1	3	40	0	HIT	HIT	3351	experiment	RVvGV	145	1	3	40	0	HIT	HIT	2541	experiment	RVvGV	146	0	12	1	0	TNEG	TNEG	3271	experiment	RVvGV	147	1	12	40	0	HIT	HIT	3901	experiment	RVvGV	148	1	6	1	1	MISS	MISS	3401	experiment	RVvGV	149	0	12	1	0	TNEG	TNEG	7021	experiment	RVvGV	150	1	12	40	0	HIT	HIT	3191	experiment	RVvGV	151	0	18	1	0	TNEG	TNEG	3541	experiment	RVvGV	152	0	6	1	0	TNEG	TNEG	3481	experiment	RVvGV	153	0	3	1	0	TNEG	TNEG	2311	experiment	RVvGV	154	0	12	1	0	TNEG	TNEG	4071	experiment	RVvGV	155	0	6	1	0	TNEG	TNEG	3161	experiment	RVvGV	156	0	18	1	0	TNEG	TNEG	3691	experiment	RVvGV	157	1	3	40	0	HIT	HIT	3351	experiment	RVvGV	158	1	12	40	0	HIT	HIT	6471	experiment	RVvGV	159	1	3	40	0	HIT	HIT	3101	experiment	RVvGV	160	1	3	40	0	HIT	HIT	2941	experiment	RVvGV	161	0	3	1	0	TNEG	TNEG	3991	experiment	RVvGV	162	1	6	40	0	HIT	HIT	3801	experiment	RVvGV	163	1	12	40	0	HIT	HIT	2711	experiment	RVvGV	164	0	12	1	0	TNEG	TNEG	4151	experiment	RVvGV	165	0	12	1	0	TNEG	TNEG	7111	experiment	RVvGV	166	0	3	1	0	TNEG	TNEG	3991	experiment	RVvGV	167	1	3	40	0	HIT	HIT	3911	experiment	RVvGV	168	0	6	1	0	TNEG	TNEG	3241	experiment	RVvGV	169	0	12	1	0	TNEG	TNEG	3591	experiment	RVvGV	170	0	6	1	0	TNEG	TNEG	3801	experiment	RVvGV	171	0	18	1	0	TNEG	TNEG	3861	experiment	RVvGV	172	1	6	40	0	HIT	HIT	4681	experiment	RVvGV	173	1	3	40	0	HIT	HIT	3181	experiment	RVvGV	174	1	6	40	0	HIT	HIT	3001	experiment	RVvGV	175	0	6	1	0	TNEG	TNEG	3241	experiment	RVvGV	176	1	12	40	0	HIT	HIT	3031	experiment	RVvGV	177	0	6	1	0	TNEG	TNEG	3331	experiment	RVvGV	178	0	18	1	0	TNEG	TNEG	2501	experiment	RVvGV	179	0	18	1	0	TNEG	TNEG	3621	experiment	RVvGV	180	0	6	1	0	TNEG	TNEG	3161	experiment	RVvGV	181	0	6	1	0	TNEG	TNEG	3401	experiment	RVvGV	182	1	12	40	0	HIT	HIT	3911	experiment	RVvGV	183	1	18	40	0	HIT	HIT	3861	experiment	RVvGV	184	0	12	1	0	TNEG	TNEG	2951	experiment	RVvGV	185	0	3	1	0	TNEG	TNEG	3331	experiment	RVvGV	186	0	3	1	0	TNEG	TNEG	2861	experiment	RVvGV	187	0	3	1	0	TNEG	TNEG	3991	experiment	RVvGV	188	1	3	40	0	HIT	HIT	3591	experiment	RVvGV	189	1	3	1	1	MISS	MISS	2871	experiment	RVvGV	190	1	6	40	0	HIT	HIT	3161	experiment	RVvGV	191	0	12	1	0	TNEG	TNEG	8071	experiment	RVvGV	192	0	12	1	0	TNEG	TNEG	262